time,seconds_elapsed,z,y,x
1788862178125702100,0.0487021484375,-0.5170737504959106,-0.18107230961322784,2.1299352645874023
1788862178135743200,0.0587431640625,-0.4795388877391815,-0.30216971039772034,2.185445785522461
1788862178145785000,0.06878515625,-0.410499632358551,-0.4879702031612396,2.220097064971924
1788862178155827000,0.078826904296875,-0.25522884726524353,-0.6360395550727844,2.2930376529693604
1788862178165868000,0.088867919921875,-0.0797765851020813,-0.6742170453071594,2.375617742538452
1788862178175910100,0.09891015625,0.05913149565458298,-0.7115684151649475,2.4667165279388428
1788862178185952300,0.1089521484375,0.1260514110326767,-0.9176123738288879,2.4895992279052734
1788862178195993000,0.1189931640625,0.06858598440885544,-1.3916382789611816,2.3959786891937256
1788862178206035500,0.129035400390625,-0.06164126098155975,-1.9743828773498535,2.255187749862671
1788862178216077300,0.139077392578125,-0.15184704959392548,-2.506929636001587,2.1138148307800293
1788862178226118400,0.149118408203125,-0.11283067613840103,-2.9475481510162354,1.9769967794418335
1788862178236160300,0.15916015625,0.039918120950460434,-3.4869563579559326,1.7402766942977905
1788862178246202000,0.1692021484375,0.19722811877727509,-3.944769859313965,1.3936101198196411
1788862178256243200,0.1792431640625,0.4109867513179779,-4.260258197784424,1.0253931283950806
1788862178266285000,0.18928515625,0.7096730470657349,-4.60093879699707,0.7557774186134338
1788862178276327400,0.199327392578125,1.0134919881820679,-4.842895984649658,0.5495983958244324
1788862178286368300,0.2093681640625,1.305471420288086,-4.925090312957764,0.4244420826435089
1788862178296410400,0.219410400390625,1.574053406715393,-4.853899955749512,0.3501742482185364
1788862178306452200,0.2294521484375,2.0277719497680664,-4.747251510620117,0.33992642164230347
1788862178316493300,0.239493408203125,2.7105565071105957,-4.681002140045166,0.5382746458053589
1788862178326535200,0.24953515625,3.123455762863159,-4.515377998352051,0.7762802839279175
1788862178336577300,0.259577392578125,3.2675373554229736,-4.74977970123291,0.955180823802948
1788862178346618000,0.2696181640625,3.2354018688201904,-5.344139575958252,1.1676677465438843
1788862178356660500,0.279660400390625,3.1239960193634033,-5.782835006713867,1.4377280473709106
1788862178366702300,0.289702392578125,3.027146100997925,-6.044497966766357,1.7240008115768433
1788862178376743400,0.299743408203125,3.064260244369507,-6.212760925292969,2.0130131244659424
1788862178386785300,0.309785400390625,3.251763343811035,-6.248457431793213,2.2552056312561035
1788862178396827100,0.3198271484375,3.4586498737335205,-6.065206527709961,2.3758046627044678
1788862178406868200,0.3298681640625,3.6387827396392822,-5.773968696594238,2.3448832035064697
1788862178416910000,0.33991015625,3.7824172973632812,-5.4172821044921875,2.2013556957244873
1788862178426952400,0.349952392578125,3.891535520553589,-4.999338150024414,2.013960123062134
1788862178436993300,0.3599931640625,3.9797701835632324,-4.496999740600586,1.7990961074829102
1788862178447035400,0.370035400390625,4.1045145988464355,-4.030017375946045,1.5970063209533691
1788862178457077200,0.3800771484375,4.240931987762451,-3.60745906829834,1.4058928489685059
1788862178467118300,0.390118408203125,4.309749126434326,-3.2964515686035156,1.2553595304489136
1788862178477160200,0.40016015625,4.283048629760742,-3.1294896602630615,1.173876404762268
1788862178487202000,0.4102021484375,4.210453987121582,-3.0501890182495117,1.1728593111038208
1788862178497243400,0.420243408203125,4.177855491638184,-2.9048376083374023,1.2258716821670532
1788862178507285200,0.43028515625,4.156363487243652,-2.6017818450927734,1.342886209487915
1788862178517327400,0.440327392578125,4.080316543579102,-2.1453135013580322,1.5235496759414673
1788862178527368200,0.4503681640625,3.8624913692474365,-1.6136428117752075,1.7341705560684204
1788862178537410300,0.460410400390625,3.43562912940979,-1.0823949575424194,1.9049042463302612
1788862178547452200,0.4704521484375,2.8204140663146973,-0.6099776029586792,2.024384021759033
1788862178557493200,0.4804931640625,2.142338752746582,-0.29851478338241577,2.0870962142944336
1788862178567535400,0.490535400390625,1.700951099395752,-0.27404487133026123,2.024341106414795
1788862178577577500,0.500577392578125,1.3467986583709717,-0.4377725422382355,1.920097827911377
1788862178587618300,0.510618408203125,1.008744716644287,-0.5090970396995544,1.8636939525604248
1788862178597660400,0.520660400390625,0.719539225101471,-0.48898354172706604,1.8426339626312256
1788862178607702300,0.530702392578125,0.5033766031265259,-0.5032383799552917,1.8686250448226929
1788862178617743400,0.540743408203125,0.410872220993042,-0.46563720703125,1.8915226459503174
1788862178627785200,0.55078515625,0.4085201323032379,-0.3080070912837982,1.9037034511566162
1788862178637827300,0.560827392578125,0.41266506910324097,-0.12279516458511353,1.8732818365097046
1788862178647868400,0.570868408203125,0.3636256158351898,-0.026993533596396446,1.6937272548675537
1788862178657910300,0.58091015625,0.2881803810596466,-0.02907293103635311,1.3650412559509277
1788862178667952400,0.590952392578125,0.13086746633052826,-0.04375200718641281,0.9833189845085144
1788862178677993200,0.6009931640625,0.033678069710731506,-0.1352318525314331,0.6276112198829651
1788862178688035300,0.611035400390625,-0.002689792774617672,-0.18794886767864227,0.3902417719364166
1788862178698077200,0.6210771484375,0.053582534193992615,-0.5368093848228455,0.18666015565395355
1788862178708118300,0.6311181640625,0.16933204233646393,-1.0744975805282593,-0.029402097687125206
1788862178718160400,0.641160400390625,0.24474476277828217,-1.5400927066802979,-0.15905410051345825
1788862178728202200,0.6512021484375,0.2477474808692932,-1.6471115350723267,-0.21038253605365753
1788862178738243300,0.661243408203125,0.22871999442577362,-1.1125125885009766,-0.17664188146591187
1788862178748285200,0.67128515625,0.18729372322559357,-0.4459756016731262,-0.27128317952156067
1788862178758327300,0.681327392578125,0.08641158789396286,0.18339192867279053,-0.5255391597747803
1788862178768368000,0.6913681640625,-0.030589867383241653,0.7470766305923462,-0.8940892219543457
1788862178778410200,0.70141015625,-0.1396407186985016,1.1874910593032837,-1.2869515419006348
1788862178788451000,0.711451171875,-0.21850411593914032,1.459071159362793,-1.668516755104065
1788862178798493400,0.721493408203125,-0.22245225310325623,1.4775774478912354,-1.9822536706924438
1788862178808535300,0.731535400390625,-0.13722044229507446,1.2131258249282837,-2.1607985496520996
1788862178818576400,0.741576416015625,0.006650978233665228,0.7557867169380188,-2.170504331588745
1788862178828618200,0.7516181640625,0.12803679704666138,0.22450101375579834,-2.0085551738739014
1788862178838660400,0.761660400390625,0.19488480687141418,-0.19386747479438782,-1.677870273590088
1788862178848701200,0.771701171875,0.19708935916423798,-0.45688843727111816,-1.1674253940582275
1788862178858743300,0.781743408203125,0.13613280653953552,-0.5873141288757324,-0.6784847378730774
1788862178868785400,0.791785400390625,0.06541815400123596,-0.5177707076072693,-0.24038250744342804
1788862178878826500,0.801826416015625,0.00830613262951374,-0.4328528940677643,0.05963323637843132
1788862178888868400,0.811868408203125,0.004081560764461756,-0.2836703360080719,0.2704503834247589
1788862178898910200,0.82191015625,0.019355321303009987,-0.09273979067802429,0.42616328597068787
1788862178908951300,0.831951416015625,0.02496420592069626,0.006736732088029385,0.5129008293151855
1788862178918993200,0.8419931640625,-0.013659886084496975,0.005167065188288689,0.5752102732658386
1788862178929035300,0.85203515625,-0.05613277852535248,0.038487471640110016,0.6625097990036011
1788862178939076000,0.862076171875,-0.07217752188444138,0.08851681649684906,0.783932626247406
1788862178949118500,0.872118408203125,-0.08434923738241196,0.10362333059310913,0.9192142486572266
1788862178959160300,0.882160400390625,-0.09989038109779358,0.08703822642564774,1.0650156736373901
1788862178969201400,0.892201416015625,-0.12777474522590637,0.08118886500597,1.2249318361282349
1788862178979243300,0.9022431640625,-0.16713546216487885,0.06446287781000137,1.3783704042434692
1788862178989285000,0.91228515625,-0.21018625795841217,0.014916098676621914,1.4844025373458862
1788862178999326200,0.922326171875,-0.2634097933769226,-0.5335994958877563,1.40908682346344
1788862179009368000,0.9323681640625,-0.3215511441230774,-1.939958095550537,1.0693622827529907
1788862179019410400,0.942410400390625,-0.1604868769645691,-2.91886830329895,0.8157235980033875
1788862179029451300,0.952451171875,-0.12104439735412598,-2.606821060180664,0.8376328945159912
1788862179039493400,0.962493408203125,-0.06786879897117615,-1.8029073476791382,0.7642934322357178
1788862179049535200,0.97253515625,0.006853645201772451,-1.1642775535583496,0.36229029297828674
1788862179059576300,0.982576416015625,-0.028851356357336044,-0.4469093084335327,-0.07444200664758682
1788862179069618200,0.9926181640625,-0.1384337693452835,0.2115740329027176,-0.33470234274864197
1788862179079660300,1.002660400390625,-0.2979222238063812,0.46585291624069214,-0.37459996342658997
1788862179089701000,1.012701171875,-0.4796678125858307,0.4409904479980469,-0.17788638174533844
1788862179099743500,1.022743408203125,-0.6507575511932373,0.19687019288539886,0.12745782732963562
1788862179109785300,1.032785400390625,-0.7883769273757935,-0.13722603023052216,0.4838484227657318
1788862179119826400,1.042826416015625,-0.8841385841369629,-0.5400059819221497,0.8434484004974365
1788862179129868300,1.052868408203125,-0.8494751453399658,-1.0225571393966675,1.1973845958709717
1788862179139910100,1.06291015625,-0.9358856678009033,-1.0529893636703491,1.67149817943573
1788862179149951200,1.072951171875,-0.9791234135627747,-1.0899873971939087,1.9842102527618408
1788862179159993000,1.0829931640625,-0.8986895680427551,-1.3630212545394897,1.9631468057632446
1788862179170035500,1.093035400390625,-0.8453621864318848,-1.2094764709472656,1.782475233078003
1788862179180076300,1.103076171875,-0.7879137992858887,-0.9414990544319153,1.4001617431640625
1788862179190118700,1.11311865234375,-0.7547779083251953,-0.6604791283607483,1.0986263751983643
1788862179200160800,1.123160888671875,-0.7615380883216858,-0.6611363887786865,1.0513923168182373
1788862179210201900,1.133201904296875,-0.8458383083343506,-0.9989855289459229,1.2325823307037354
1788862179220243700,1.14324365234375,-0.7492707967758179,-1.5057709217071533,1.4795763492584229
1788862179230284800,1.153284912109375,-0.6565546989440918,-1.5420423746109009,1.7162212133407593
1788862179240326700,1.16332666015625,-0.6878452301025391,-0.562619686126709,1.5760067701339722
1788862179250368500,1.173368408203125,-0.5391796231269836,0.27523502707481384,1.317491054534912
1788862179260409600,1.18340966796875,-0.031241808086633682,0.43638184666633606,1.0513709783554077
1788862179270451500,1.193451416015625,0.44351884722709656,0.08400249481201172,0.7833448648452759
1788862179280493800,1.203493896484375,0.979103684425354,0.07196873426437378,0.955267071723938
1788862179290534700,1.21353466796875,1.644748330116272,0.3137856125831604,1.0779203176498413
1788862179300576800,1.22357666015625,2.0953874588012695,0.6723946332931519,0.9222226142883301
1788862179310618600,1.23361865234375,2.4967854022979736,0.7494286894798279,0.6090476512908936
1788862179320659700,1.24365966796875,3.175699472427368,0.7103116512298584,0.46198520064353943
1788862179330701600,1.25370166015625,3.6952922344207764,0.8741732835769653,0.13523931801319122
1788862179340743400,1.263743408203125,3.78145694732666,1.416488528251648,-0.10838905721902847
1788862179350784800,1.27378466796875,3.980074405670166,1.3782023191452026,-0.0073591130785644054
1788862179360826600,1.28382666015625,4.043845176696777,1.648495078086853,0.00971760880202055
1788862179370868700,1.29386865234375,4.117007732391357,1.4209588766098022,0.06345167756080627
1788862179380909600,1.30390966796875,3.750910758972168,0.25419339537620544,0.0992102101445198
1788862179390951700,1.31395166015625,3.150620222091675,-1.0354820489883423,0.009412409737706184
1788862179400993500,1.32399365234375,3.234586238861084,-1.819352626800537,-0.309366375207901
1788862179411034600,1.33403466796875,3.0522449016571045,-1.5050705671310425,-0.6697405576705933
1788862179421076700,1.34407666015625,2.5122435092926025,-0.6149246692657471,-0.7987728118896484
1788862179431118800,1.354118896484375,1.8128066062927246,-0.3816360533237457,-0.7469599843025208
1788862179441159700,1.36415966796875,1.1193466186523438,-0.3892399072647095,-0.5631189942359924
1788862179451201800,1.374201904296875,0.5402251482009888,-0.14050811529159546,-0.35970598459243774
1788862179461243600,1.38424365234375,0.47559821605682373,0.3024671971797943,-0.45506685972213745
1788862179471284700,1.39428466796875,1.7794758081436157,1.1415975093841553,-0.8763712048530579
1788862179481326600,1.40432666015625,5.084837436676025,1.292305588722229,-1.455180287361145
1788862179491368700,1.41436865234375,4.449326038360596,-0.6640621423721313,-0.30385923385620117
1788862179501409800,1.424409912109375,1.657074213027954,-2.149416208267212,1.21425199508667
1788862179511451600,1.43445166015625,-0.0410238653421402,-1.2988758087158203,0.27991101145744324
1788862179521493800,1.44449365234375,-0.4450903832912445,2.2511775493621826,-1.6082872152328491
1788862179531534600,1.45453466796875,-0.33270472288131714,3.0587730407714844,-2.163296699523926
1788862179541576700,1.46457666015625,0.23468707501888275,1.9452756643295288,-1.4350653886795044
1788862179551617500,1.474617431640625,0.6342552304267883,0.7128238081932068,-0.7917588353157043
1788862179561659600,1.48465966796875,0.8895301222801208,0.2048732489347458,-0.4266272187232971
1788862179571701800,1.49470166015625,1.3066760301589966,-0.34261539578437805,-0.1810496747493744
1788862179581742800,1.504742919921875,0.9711312651634216,-1.2148158550262451,0.40410274267196655
1788862179591784700,1.51478466796875,-0.06190571188926697,-2.637375831604004,1.1690465211868286
1788862179601826600,1.52482666015625,-1.1383535861968994,-3.729612350463867,1.6198676824569702
1788862179611867600,1.53486767578125,-1.59284245967865,-3.7945432662963867,1.805525779724121
1788862179621909500,1.544909423828125,-1.3921860456466675,-3.2424392700195312,1.8376868963241577
1788862179631951600,1.55495166015625,-0.97080397605896,-2.9665915966033936,1.574679970741272
1788862179641992400,1.564992431640625,0.06327297538518906,-0.7334052920341492,0.6084446907043457
1788862179652034800,1.575034912109375,1.9251341819763184,0.565535843372345,-0.9093150496482849
1788862179662076700,1.58507666015625,2.687063217163086,0.6866089701652527,-1.0341304540634155
1788862179672117800,1.59511767578125,1.5303881168365479,0.37990471720695496,-0.4159620702266693
1788862179682159600,1.60515966796875,0.17439843714237213,0.1852412223815918,0.19626085460186005
1788862179692201700,1.61520166015625,-0.38155296444892883,0.15556775033473969,0.40163666009902954
1788862179702242600,1.62524267578125,-0.6833820343017578,0.31773507595062256,0.05874986574053764
1788862179712284700,1.63528466796875,-0.9097943902015686,0.544391393661499,-0.372804194688797
1788862179722326800,1.645326904296875,-0.7067978978157043,0.7657509446144104,-0.8847582936286926
1788862179732368000,1.655367919921875,-0.26999154686927795,0.7047113180160522,-0.7723859548568726
1788862179742409700,1.66540966796875,-0.2681046724319458,1.0286898612976074,-0.34003186225891113
1788862179752451600,1.67545166015625,-0.11166687309741974,0.396597683429718,-0.39469006657600403
1788862179762492700,1.68549267578125,0.13780739903450012,0.0202149897813797,-0.2023264765739441
1788862179772534500,1.695534423828125,0.3278694748878479,-0.020627247169613838,0.11131160706281662
1788862179782576600,1.70557666015625,0.4589366912841797,-0.09373767673969269,0.47121545672416687
1788862179792617500,1.715617431640625,0.6712492108345032,-0.36077603697776794,0.8759730458259583
1788862179802659800,1.725659912109375,0.9461619853973389,-0.35065576434135437,0.8791904449462891
1788862179812701700,1.73570166015625,1.070846438407898,-0.4272402822971344,0.4625071883201599
1788862179822742800,1.74574267578125,1.1309398412704468,-0.5115460753440857,0.24059396982192993
1788862179832784600,1.75578466796875,1.2497559785842896,-0.5635600090026855,0.07768520712852478
1788862179842825700,1.76582568359375,1.4136383533477783,-0.7863185405731201,-0.0220914538949728
1788862179852867600,1.77586767578125,1.4782134294509888,-0.6107520461082458,-0.16335085034370422
1788862179862909400,1.785909423828125,1.368389368057251,0.09117252379655838,-0.3890891671180725
1788862179872950500,1.795950439453125,1.121574878692627,-0.10286406427621841,-0.331782728433609
1788862179882992600,1.80599267578125,0.897727370262146,-0.14411883056163788,-0.10606411844491959
1788862179893034800,1.81603466796875,0.7637088298797607,-0.12404285371303558,-0.03196379169821739
1788862179903075600,1.82607568359375,0.7020555734634399,-0.14539314806461334,-0.02810300700366497
1788862179913117700,1.83611767578125,0.47775939106941223,-0.18733154237270355,-0.13045839965343475
1788862179923159600,1.84615966796875,0.04158685728907585,-0.1832936555147171,0.03241919353604317
1788862179933200600,1.85620068359375,-0.09524369239807129,0.04501860588788986,0.049373406916856766
1788862179943242500,1.866242431640625,-0.08712983876466751,0.2336745411157608,0.05330130457878113
1788862179953284900,1.876284912109375,-0.15945516526699066,0.2554756999015808,0.09976174682378769
1788862179963325700,1.88632568359375,-0.35929104685783386,0.14498594403266907,0.09481332451105118
1788862179973367800,1.896367919921875,-0.5042639374732971,0.06595664471387863,0.09265457093715668
1788862179983409700,1.90640966796875,-0.36855992674827576,0.09686236083507538,0.04844103381037712
1788862179993450800,1.91645068359375,-0.03340642526745796,0.013353888876736164,0.001915878034196794
1788862180003492600,1.92649267578125,0.2553470730781555,-0.07179109752178192,0.04945037513971329
1788862180013534500,1.936534423828125,0.5192317366600037,0.03261386975646019,0.09714838862419128
1788862180023575600,1.946575439453125,0.6797676086425781,0.14021436870098114,0.10974247753620148
1788862180033617700,1.95661767578125,0.7621535658836365,0.07044007629156113,0.1514371931552887
1788862180043659800,1.96665966796875,1.08311927318573,-0.026934944093227386,0.23761548101902008
1788862180053700600,1.97670068359375,1.455189824104309,-0.20279571413993835,0.4623388648033142
1788862180063742700,1.98674267578125,1.5938286781311035,-0.5303064584732056,0.4642057418823242
1788862180073784600,1.99678466796875,1.740896463394165,-0.8116859793663025,0.4768269956111908
1788862180083825700,2.00682568359375,1.8150897026062012,-0.9428673982620239,0.7022790312767029
1788862180093867800,2.01686767578125,1.6359007358551025,-1.2191206216812134,0.9532678723335266
1788862180103908900,2.026908935546875,1.3578603267669678,-1.2773364782333374,1.124328851699829
1788862180113950700,2.03695068359375,1.3559486865997314,-1.485545039176941,0.8373878598213196
1788862180123992600,2.04699267578125,1.5364258289337158,-1.1533557176589966,0.34548309445381165
1788862180134033700,2.05703369140625,1.3599716424942017,-0.489471971988678,-0.16160035133361816
1788862180144075500,2.067075439453125,1.1080430746078491,-0.020431505516171455,-0.4277670383453369
1788862180154117600,2.07711767578125,1.005553960800171,0.22762836515903473,-0.4243757724761963
1788862180164158500,2.087158447265625,0.9309700131416321,0.45455098152160645,-0.404783695936203
1788862180174200800,2.097200927734375,0.9269284009933472,0.4382830858230591,-0.5631182193756104
1788862180184242200,2.1072421875,0.6953854560852051,0.46069198846817017,-0.9152536392211914
1788862180194283300,2.117283203125,0.5412096977233887,0.6450261473655701,-1.1099584102630615
1788862180204325000,2.1273251953125,0.44802144169807434,0.2517203986644745,-1.0495216846466064
1788862180214367200,2.1373671875,0.5302196741104126,-0.4129990339279175,-1.111807942390442
1788862180224408000,2.147407958984375,0.6898356676101685,-1.215060830116272,-1.4666718244552612
1788862180234450200,2.1574501953125,0.9429475665092468,-3.308814525604248,-0.9866843819618225
1788862180244492300,2.1674921875,1.0994693040847778,-3.110924243927002,-0.1749771386384964
1788862180254533400,2.177533447265625,1.2247734069824219,-1.837024211883545,-0.046478018164634705
1788862180264575200,2.1875751953125,1.4206485748291016,-0.5666778087615967,-0.17390228807926178
1788862180274617000,2.1976171875,1.5104858875274658,-0.16903908550739288,-0.2661576569080353
1788862180284658200,2.207658203125,1.8657395839691162,-0.5896848440170288,-0.3356997072696686
1788862180294700000,2.217699951171875,1.7460209131240845,-1.2801791429519653,-0.5603594779968262
1788862180304742100,2.2277421875,1.5503991842269897,-1.2350350618362427,-0.3078310489654541
1788862180314783000,2.237782958984375,1.4710105657577515,-1.0259159803390503,-0.2698218822479248
1788862180324825300,2.247825439453125,1.105158805847168,-1.4366233348846436,-0.22180163860321045
1788862180334866200,2.2578662109375,0.830034077167511,-2.19562029838562,-0.2537289559841156
1788862180344908300,2.267908203125,0.5451421737670898,-2.3799028396606445,-0.2258584350347519
1788862180354950100,2.2779501953125,0.42721283435821533,-2.1845693588256836,-0.06293182820081711
1788862180364991200,2.2879912109375,0.15229472517967224,-2.1349573135375977,0.1456829011440277
1788862180375033000,2.298033203125,-0.22295798361301422,-2.067014694213867,0.337240606546402
1788862180385075200,2.3080751953125,-0.20587806403636932,-2.013015031814575,0.4161527454853058
1788862180395116000,2.318115966796875,-0.16504886746406555,-1.9058334827423096,0.39760276675224304
1788862180405158400,2.328158447265625,0.07405664771795273,-1.8160574436187744,0.3457760512828827
1788862180415200300,2.3382001953125,0.2967435121536255,-1.5361605882644653,0.27614662051200867
1788862180425241300,2.348241455078125,0.23359863460063934,-1.1767773628234863,0.17608101665973663
1788862180435283200,2.358283203125,0.16843028366565704,-0.8566571474075317,-0.016516659408807755
1788862180445325000,2.368324951171875,0.2720552086830139,-0.5749408006668091,-0.18804793059825897
1788862180455366100,2.3783662109375,0.2815970480442047,-0.07023821026086807,-0.32814884185791016
1788862180465408000,2.388407958984375,0.2233971357345581,0.4365597367286682,-0.34196799993515015
1788862180475450400,2.398450439453125,0.25363680720329285,0.5603474378585815,-0.2689632773399353
1788862180485491200,2.4084912109375,0.32074764370918274,0.7536128163337708,-0.2659491300582886
1788862180495533300,2.418533203125,0.38728833198547363,0.7708141803741455,-0.3233892321586609
1788862180505575200,2.4285751953125,0.34632784128189087,0.27827370166778564,-0.2709585428237915
1788862180515616300,2.4386162109375,0.22590503096580505,-0.13321185111999512,-0.17288336157798767
1788862180525658000,2.448658203125,0.19900177419185638,-0.29973292350769043,-0.07923063635826111
1788862180535700000,2.458699951171875,0.3851623237133026,-0.4151308834552765,-0.05730137228965759
1788862180545741300,2.4687412109375,0.5706970691680908,-0.5269340872764587,-0.053275205194950104
1788862180555783200,2.478783203125,0.5839619636535645,-0.5749351978302002,0.014315555803477764
1788862180565825300,2.4888251953125,0.522659182548523,-0.5607118010520935,0.10235939174890518
1788862180575866000,2.4988662109375,0.5245769619941711,-0.690990149974823,0.1631859987974167
1788862180585908200,2.508908203125,0.4224037230014801,-0.8810820579528809,0.22846274077892303
1788862180595949000,2.518948974609375,0.3469209372997284,-0.93442302942276,0.27737781405448914
1788862180605991200,2.5289912109375,0.45431238412857056,-1.0159258842468262,0.3053162395954132
1788862180616033300,2.539033203125,0.3748750686645508,-0.9557493925094604,0.39878255128860474
1788862180626074400,2.549074462890625,0.24737118184566498,-0.21665240824222565,0.4667333662509918
1788862180636116200,2.5591162109375,0.019768644124269485,0.7827714681625366,0.3745163381099701
1788862180646158300,2.569158447265625,-0.3657739758491516,1.4204270839691162,0.10995925962924957
1788862180656199200,2.57919921875,-0.6185785531997681,1.4229259490966797,-0.07189842313528061
1788862180666241300,2.5892412109375,-0.5416057109832764,0.9623164534568787,0.007872836664319038
1788862180676283100,2.599283203125,-0.3952440023422241,0.6853011250495911,0.43981146812438965
1788862180686324200,2.60932421875,-0.10321240872144699,0.6830821633338928,0.8554390072822571
1788862180696366300,2.619366455078125,0.16050365567207336,0.760627269744873,0.9584937691688538
1788862180706408200,2.629408203125,0.3147355616092682,0.9356198906898499,0.7384783029556274
1788862180716449300,2.63944921875,0.027905134484171867,1.1886918544769287,0.17101329565048218
1788862180726491100,2.6494912109375,-0.19260114431381226,0.9974371790885925,-0.2858077883720398
1788862180736533200,2.659533203125,-0.06560377776622772,0.4356454908847809,-0.16244404017925262
1788862180746574000,2.669573974609375,0.3514059782028198,0.1849786341190338,0.16415618360042572
1788862180756616200,2.6796162109375,0.5797235369682312,0.13491201400756836,0.39157336950302124
1788862180766658300,2.689658203125,0.5047667622566223,-0.010219081304967403,0.45632225275039673
1788862180776699400,2.699699462890625,0.37331873178482056,-0.28417447209358215,0.4217278063297272
1788862180786741200,2.7097412109375,0.3148985505104065,-0.5737063884735107,0.3900130093097687
1788862180796783000,2.719783203125,0.32104113698005676,-0.6897528767585754,0.4060977101325989
1788862180806824200,2.72982421875,0.3284796178340912,-0.6607164144515991,0.38883456587791443
1788862180816866000,2.739865966796875,0.22546933591365814,-0.5365664958953857,0.20484475791454315
1788862180826908200,2.749908203125,0.2860296368598938,-0.46705612540245056,-0.0016165387351065874
1788862180836949000,2.759948974609375,0.30358198285102844,-0.5157358050346375,-0.09812070429325104
1788862180846991400,2.769991455078125,0.3458074629306793,-0.5152729153633118,-0.07510779798030853
1788862180857033200,2.780033203125,0.4096945822238922,-0.4664483964443207,0.008078965358436108
1788862180867074300,2.79007421875,0.4440631866455078,-0.47426503896713257,0.06983447819948196
1788862180877116200,2.8001162109375,0.4814382791519165,-0.5150468349456787,0.10629288107156754
1788862180887157200,2.8101572265625,0.44993653893470764,-0.6038976311683655,0.17636944353580475
1788862180897199000,2.82019921875,0.4277598559856415,-0.6366906762123108,0.2366974949836731
1788862180907241200,2.8302412109375,0.4383389949798584,-0.54744952917099,0.24049782752990723
1788862180917282000,2.840281982421875,0.4722631573677063,-0.4160536825656891,0.15938939154148102
1788862180927324400,2.850324462890625,0.48151683807373047,-0.3051433861255646,0.050989147275686264
1788862180937366300,2.8603662109375,0.4187679588794708,-0.0953155979514122,-0.10955578833818436
1788862180947407400,2.870407470703125,0.3229205310344696,-0.010657970793545246,-0.2001541256904602
1788862180957449200,2.88044921875,0.2154124528169632,0.013637781143188477,-0.2925812602043152
1788862180967491000,2.890490966796875,0.11475773900747299,-0.03462082892656326,-0.346949964761734
1788862180977532200,2.9005322265625,0.0383915975689888,-0.06804323196411133,-0.3985782861709595
1788862180987574000,2.910573974609375,-0.02062884531915188,-0.04380819946527481,-0.4522944986820221
1788862180997616400,2.920616455078125,-0.10982690006494522,-0.0010271812789142132,-0.511216402053833
1788862181007657200,2.9306572265625,-0.21208961308002472,-0.05429359897971153,-0.5898851156234741
1788862181017699300,2.94069921875,-0.2895412743091583,-0.14084181189537048,-0.7551377415657043
1788862181027741200,2.9507412109375,-0.3366405963897705,-0.3307315707206726,-0.7865496873855591
1788862181037782300,2.9607822265625,-0.19328904151916504,-0.522937536239624,-0.7088256478309631
1788862181047824100,2.97082421875,0.30321767926216125,-0.8826658725738525,-0.566729724407196
1788862181057866000,2.980865966796875,0.2441314458847046,-1.0590161085128784,0.03303757682442665
1788862181067907000,2.990906982421875,-0.08161763101816177,-0.5398195385932922,0.3485603928565979
1788862181077949200,3.00094921875,-0.262703001499176,-0.09347748756408691,0.4201195240020752
1788862181087991300,3.0109912109375,-0.19923481345176697,-0.04234985262155533,0.39511215686798096
1788862181098032000,3.0210322265625,-0.042396992444992065,-0.18293678760528564,0.2893471121788025
1788862181108074200,3.03107421875,0.052869606763124466,-0.26275119185447693,0.20748181641101837
1788862181118115000,3.041114990234375,-0.016805611550807953,-0.29120415449142456,0.20691776275634766
1788862181128157200,3.0511572265625,-0.08716312795877457,-0.2700005769729614,0.25350257754325867
1788862181138199000,3.061198974609375,-0.06738223880529404,-0.3084619641304016,0.34612730145454407
1788862181148241400,3.071241455078125,-0.030493194237351418,-0.38258278369903564,0.3564673066139221
1788862181158282200,3.0812822265625,-0.08876395970582962,-0.2690562307834625,0.2575436532497406
1788862181168324400,3.091324462890625,-0.08186876773834229,-0.09544023871421814,0.17734256386756897
1788862181178365200,3.101365234375,-0.09709299355745316,-0.025184715166687965,0.10573282092809677
1788862181188407300,3.1114072265625,-0.0631861612200737,0.035718318074941635,0.03802088648080826
1788862181198449700,3.12144970703125,0.3364022374153137,0.2853845953941345,-0.07144489139318466
1788862181208490500,3.131490478515625,0.5207358598709106,0.2971954643726349,-0.023080285638570786
1788862181218532600,3.14153271484375,0.5050234794616699,0.2532397210597992,0.015918511897325516
1788862181228574500,3.151574462890625,0.4513203203678131,0.24258866906166077,0.11680091917514801
1788862181238615600,3.161615478515625,0.507700502872467,0.4036089777946472,0.15961389243602753
1788862181248657400,3.171657470703125,0.6672720313072205,0.6507692337036133,0.20623812079429626
1788862181258699500,3.181699462890625,0.665584146976471,0.6891493797302246,0.26417970657348633
1788862181268740600,3.19174072265625,0.6507953405380249,0.6725932955741882,0.3305851221084595
1788862181278782700,3.20178271484375,0.6326310038566589,0.5327746868133545,0.3751102387905121
1788862181288824600,3.211824462890625,0.531758725643158,0.31304261088371277,0.30571863055229187
1788862181298865700,3.22186572265625,0.36745762825012207,0.17925336956977844,0.11873757094144821
1788862181308907500,3.231907470703125,0.17359095811843872,0.055810533463954926,-0.010437993332743645
1788862181318949400,3.241949462890625,0.043963994830846786,0.008054996840655804,-0.030663901939988136
1788862181328990500,3.251990478515625,0.050462909042835236,0.05144987627863884,-0.00039414784987457097
1788862181339032600,3.262032470703125,0.09899955242872238,0.040292829275131226,0.04313548654317856
1788862181349074700,3.27207470703125,0.046972036361694336,-0.15118445456027985,-0.08014197647571564
1788862181359115500,3.282115478515625,0.031569644808769226,-0.5516604781150818,-0.27744945883750916
1788862181369157600,3.29215771484375,0.03475691378116608,-0.7175131440162659,-0.4948219954967499
1788862181379198500,3.302198486328125,0.18185262382030487,-0.5994855165481567,-0.2125583291053772
1788862181389240600,3.312240478515625,0.1613697111606598,-0.15381325781345367,0.02420041151344776
1788862181399282400,3.322282470703125,0.11277421563863754,0.09852204471826553,0.24850276112556458
1788862181409323500,3.332323486328125,0.0768740102648735,0.07098336517810822,0.4973115026950836
1788862181419365600,3.34236572265625,-0.04562367871403694,0.2858884632587433,0.4070676267147064
1788862181429407500,3.352407470703125,-0.16688485443592072,0.5100544691085815,0.16112364828586578
1788862181439448600,3.362448486328125,-0.13695412874221802,0.36720702052116394,-0.00932985171675682
1788862181449490400,3.372490478515625,-0.11185435950756073,0.20298507809638977,-0.1205730214715004
1788862181459532500,3.382532470703125,-0.055932506918907166,0.005961486138403416,-0.1942959725856781
1788862181469573400,3.392573486328125,-0.012553342618048191,-0.3230057656764984,-0.24630458652973175
1788862181479615500,3.402615478515625,0.03196911886334419,-0.8832469582557678,-0.2581236958503723
1788862181489657600,3.41265771484375,0.03501497581601143,-1.3881138563156128,-0.2678716480731964
1788862181499698700,3.42269873046875,0.05800497904419899,-1.8691673278808594,-0.3116745352745056
1788862181509740500,3.432740478515625,-0.1257917433977127,-1.9596620798110962,-0.6100409626960754
1788862181519782700,3.44278271484375,-0.3361372649669647,-1.6182794570922852,-1.010528802871704
1788862181529823500,3.452823486328125,-0.39700832962989807,-1.1450843811035156,-1.0846868753433228
1788862181539865600,3.462865478515625,-0.4167570173740387,-0.6594809889793396,-0.882183313369751
1788862181549907500,3.472907470703125,-0.41952934861183167,-0.21420124173164368,-0.5324550867080688
1788862181559948500,3.482948486328125,-0.05151911824941635,0.11955302953720093,-0.3299211859703064
1788862181569990700,3.49299072265625,0.25378966331481934,0.3805409371852875,-0.3552747368812561
1788862181580032500,3.503032470703125,0.35333436727523804,0.38849714398384094,-0.3890441656112671
1788862181590073600,3.513073486328125,0.41597962379455566,0.3317126929759979,-0.42312490940093994
1788862181600115500,3.523115478515625,0.2590115964412689,0.4134666621685028,-0.35228586196899414
1788862181610157600,3.533157470703125,0.11988192796707153,0.4451473653316498,-0.2632702589035034
1788862181620198400,3.543198486328125,0.01938701421022415,0.28443145751953125,-0.2254919856786728
1788862181630240500,3.553240478515625,0.07198018580675125,-0.028185298666357994,-0.2674258351325989
1788862181640281300,3.56328125,0.12264016270637512,-0.29977554082870483,-0.4507221579551697
1788862181650323700,3.57332373046875,0.12358585000038147,-0.5436196327209473,-0.6931955218315125
1788862181660365600,3.583365478515625,0.10361986607313156,-0.7429207563400269,-0.9426540732383728
1788862181670406700,3.59340673828125,0.08899059146642685,-0.9077799916267395,-1.1503750085830688
1788862181680448500,3.603448486328125,0.0790543407201767,-1.0243268013000488,-1.3030660152435303
1788862181690490400,3.613490478515625,0.06662003695964813,-0.9711049199104309,-1.3797842264175415
1788862181700531500,3.623531494140625,0.05371809005737305,-0.6711911559104919,-1.382282018661499
1788862181710573300,3.6335732421875,0.05086637660861015,-0.2763895094394684,-1.342006802558899
1788862181720615700,3.64361572265625,0.037522073835134506,-0.008743690326809883,-1.2586053609848022
1788862181730656500,3.653656494140625,0.02466673031449318,0.04622049257159233,-1.182767391204834
1788862181740698600,3.66369873046875,0.01606285572052002,-0.09398108720779419,-1.122348427772522
1788862181750740500,3.673740478515625,0.024987641721963882,-0.37651532888412476,-1.1165523529052734
1788862181760781600,3.683781494140625,0.024861939251422882,-0.6388103365898132,-1.1810193061828613
1788862181770823400,3.693823486328125,0.005660016089677811,-0.7421979308128357,-1.2691504955291748
1788862181780865500,3.703865478515625,-0.01918754354119301,-0.7280744314193726,-1.332051157951355
1788862181790906400,3.71390625,-0.05451810359954834,-0.6570074558258057,-1.3692424297332764
1788862181800948700,3.72394873046875,-0.05654876306653023,-0.5105077624320984,-1.3600624799728394
1788862181810990600,3.733990478515625,-0.05722334235906601,-0.43105632066726685,-1.3282502889633179
1788862181821031700,3.74403173828125,-0.046971503645181656,-0.394584059715271,-1.352472186088562
1788862181831073500,3.754073486328125,-0.006986802909523249,-0.3923448920249939,-1.375759482383728
1788862181841115400,3.764115478515625,0.04225238040089607,-0.43657225370407104,-1.4020483493804932
1788862181851156500,3.774156494140625,0.07473894953727722,-0.5151682496070862,-1.4106228351593018
1788862181861198300,3.7841982421875,0.06769488751888275,-0.586757242679596,-1.3902361392974854
1788862181871240700,3.79424072265625,0.025463547557592392,-0.6609113812446594,-1.3431240320205688
1788862181881281500,3.804281494140625,-0.02694559656083584,-0.7349749207496643,-1.296797275543213
1788862181891323600,3.81432373046875,-0.05410690978169441,-0.7873103022575378,-1.2452377080917358
1788862181901364500,3.824364501953125,-0.06655479222536087,-0.8177201151847839,-1.2382638454437256
1788862181911406600,3.834406494140625,-0.056824132800102234,-0.7731897234916687,-1.2962111234664917
1788862181921448400,3.844448486328125,-0.04675658792257309,-0.7140627503395081,-1.3391282558441162
1788862181931490300,3.854490234375,-0.08616417646408081,-0.737388014793396,-1.3049782514572144
1788862181941531400,3.864531494140625,-0.15255571901798248,-0.7936739325523376,-1.2182542085647583
1788862181951573500,3.874573486328125,-0.24788276851177216,-0.8064618706703186,-1.1594470739364624
1788862181961614600,3.884614501953125,-0.3305390477180481,-0.8163102865219116,-1.1662805080413818
1788862181971656400,3.894656494140625,-0.35143259167671204,-0.8826240301132202,-1.181667447090149
1788862181981698600,3.904698486328125,-0.38360705971717834,-1.0520490407943726,-1.1870076656341553
1788862181991739400,3.914739501953125,-0.4753068685531616,-1.1766146421432495,-1.0957717895507812
1788862182001781500,3.924781494140625,-0.5663941502571106,-1.1421775817871094,-0.9773249626159668
1788862182011823600,3.93482373046875,-0.6884375214576721,-1.0369206666946411,-0.9873720407485962
1788862182021864700,3.94486474609375,-0.8314412832260132,-0.8758923411369324,-0.9985711574554443
1788862182031906600,3.954906494140625,-0.8660045862197876,-0.8437157869338989,-0.9314858317375183
1788862182041948700,3.96494873046875,-0.7779122591018677,-0.8732094764709473,-0.8288271427154541
1788862182051989500,3.974989501953125,-0.6873520016670227,-0.718332052230835,-0.6492089033126831
1788862182062031600,3.985031494140625,-0.6550329327583313,-0.36180827021598816,-0.46296072006225586
1788862182072073500,3.995073486328125,-0.6742774844169617,0.016088955104351044,-0.3821561634540558
1788862182082114600,4.005114501953125,-0.682701587677002,0.3002823293209076,-0.3200027644634247
1788862182092156700,4.01515673828125,-0.6720095276832581,0.46086108684539795,-0.29518184065818787
1788862182102198500,4.025198486328125,-0.6599291563034058,0.5483403205871582,-0.3275325894355774
1788862182112239600,4.035239501953125,-0.6060294508934021,0.5116310715675354,-0.3644424080848694
1788862182122281500,4.045281494140625,-0.5187060236930847,0.3600196838378906,-0.3551029562950134
1788862182132323600,4.055323486328125,-0.43670567870140076,0.18360312283039093,-0.31789276003837585
1788862182142364400,4.065364501953125,-0.3695293068885803,0.18022623658180237,-0.34204015135765076
1788862182152406500,4.075406494140625,-0.34369292855262756,0.2708645164966583,-0.3932056128978729
1788862182162448600,4.08544873046875,-0.35783323645591736,0.2273212969303131,-0.41758498549461365
1788862182172489700,4.09548974609375,-0.3867967128753662,0.055625177919864655,-0.44187861680984497
1788862182182531600,4.105531494140625,-0.4044859707355499,-0.11326104402542114,-0.4705701768398285
1788862182192573200,4.1155732421875,-0.3770386278629303,-0.221613347530365,-0.4144858717918396
1788862182202614000,4.125614013671875,-0.34737926721572876,-0.19039684534072876,-0.3299294412136078
1788862182212656400,4.135656494140625,-0.3169606328010559,-0.10378392040729523,-0.2670340836048126
1788862182222698200,4.1456982421875,-0.24702443182468414,-0.05883855000138283,-0.2401643991470337
1788862182232739300,4.1557392578125,-0.17056694626808167,-0.05600601062178612,-0.2559329867362976
1788862182242781200,4.16578125,-0.05505339801311493,-0.12278743833303452,-0.24681617319583893
1788862182252823000,4.175822998046875,0.049380067735910416,-0.18582633137702942,-0.23345589637756348
1788862182262864100,4.185864013671875,0.07653818279504776,-0.2453429102897644,-0.2908235788345337
1788862182272906000,4.195906005859375,0.07847749441862106,-0.21393412351608276,-0.3515511155128479
1788862182282948400,4.2059482421875,0.1230769231915474,-0.21317964792251587,-0.3046770691871643
1788862182292989200,4.2159892578125,0.23706048727035522,-0.27143338322639465,-0.2328265905380249
1788862182303031300,4.22603125,0.3924388885498047,-0.24837172031402588,-0.2134571522474289
1788862182313073200,4.2360732421875,0.5449032783508301,-0.3254007399082184,-0.2227443903684616
1788862182323114200,4.2461142578125,0.633297860622406,-0.43237537145614624,-0.255647212266922
1788862182333156000,4.256156005859375,0.6665915846824646,-0.40593817830085754,-0.30388692021369934
1788862182343198000,4.266197998046875,0.6632328629493713,-0.3846840262413025,-0.32201293110847473
1788862182353239000,4.276239013671875,0.6159263253211975,-0.4458267390727997,-0.28394410014152527
1788862182363281200,4.28628125,0.5628260970115662,-0.5401460528373718,-0.2419106364250183
1788862182373323300,4.2963232421875,0.5170713663101196,-0.6263145208358765,-0.2543409466743469
1788862182383364000,4.306364013671875,0.5029382109642029,-0.7333365678787231,-0.26097461581230164
1788862182393406200,4.31640625,0.5405995845794678,-0.7869861721992493,-0.234910786151886
1788862182403448000,4.326447998046875,0.5810615420341492,-0.7469378709793091,-0.2291993647813797
1788862182413489200,4.3364892578125,0.5696658492088318,-0.6499889492988586,-0.32753366231918335
1788862182423531000,4.346531005859375,0.5463815927505493,-0.4893481135368347,-0.3941398561000824
1788862182433573000,4.356572998046875,0.5202591419219971,-0.3210102319717407,-0.450204461812973
1788862182443614200,4.3666142578125,0.49762630462646484,-0.26569610834121704,-0.4722474217414856
1788862182453656300,4.37665625,0.5121709108352661,-0.3184288442134857,-0.5166886448860168
1788862182463698200,4.3866982421875,0.5388019680976868,-0.4357970058917999,-0.6220601201057434
1788862182473739300,4.3967392578125,0.5315120816230774,-0.49021685123443604,-0.72446209192276
1788862182483781000,4.406781005859375,0.5020564794540405,-0.4142509698867798,-0.8719919323921204
1788862182493823000,4.416822998046875,0.4520436227321625,-0.2348063886165619,-0.9874963760375977
1788862182503864000,4.426864013671875,0.4067344665527344,0.014160027727484703,-0.958618700504303
1788862182513906200,4.43690625,0.3763086497783661,0.27467870712280273,-0.9564844369888306
1788862182523948300,4.4469482421875,0.3945923149585724,0.3944186866283417,-0.9756700992584229
1788862182533989000,4.456989013671875,0.4298864006996155,0.4467886686325073,-1.0222357511520386
1788862182544031200,4.46703125,0.47064900398254395,0.38174736499786377,-1.0894718170166016
1788862182554073000,4.477072998046875,0.4985291063785553,0.35936641693115234,-1.109114170074463
1788862182564114200,4.4871142578125,0.5008133053779602,0.43469473719596863,-1.0626881122589111
1788862182574156000,4.497156005859375,0.4959716796875,0.551862895488739,-1.0003831386566162
1788862182584198100,4.5071982421875,0.4731371998786926,0.5705851912498474,-0.9463092684745789
1788862182594239200,4.5172392578125,0.4410679340362549,0.5067580342292786,-0.9221770167350769
1788862182604281000,4.527281005859375,0.4169061481952667,0.42274191975593567,-0.9015154242515564
1788862182614323200,4.5373232421875,0.3821183443069458,0.4015865921974182,-0.8581234812736511
1788862182624364000,4.547364013671875,0.36074382066726685,0.46685293316841125,-0.8438215255737305
1788862182634406100,4.55740625,0.330209344625473,0.49200382828712463,-0.913420557975769
1788862182644448000,4.567447998046875,0.3255347013473511,0.43540847301483154,-1.027146339416504
1788862182654489300,4.5774892578125,0.3306061327457428,0.3079194724559784,-1.1148074865341187
1788862182664531200,4.58753125,0.33814847469329834,0.2528940439224243,-1.126573085784912
1788862182674573000,4.597572998046875,0.3350003659725189,0.2790960967540741,-1.0388195514678955
1788862182684614100,4.6076142578125,0.30009618401527405,0.3915800154209137,-1.0059560537338257
1788862182694656300,4.61765625,0.22576095163822174,0.42008623480796814,-1.069359302520752
1788862182704698000,4.627697998046875,0.13793469965457916,0.27316123247146606,-1.1763049364089966
1788862182714739200,4.6377392578125,0.06389056891202927,0.021806761622428894,-1.2704907655715942
1788862182724781300,4.64778125,0.05945267528295517,-0.17674042284488678,-1.292148470878601
1788862182734823200,4.6578232421875,0.12456882745027542,-0.34851351380348206,-1.2170166969299316
1788862182744864300,4.6678642578125,0.1983434408903122,-0.42175257205963135,-0.9989876747131348
1788862182754906000,4.677906005859375,0.22896820306777954,-0.25130173563957214,-0.8142244815826416
1788862182764948200,4.6879482421875,0.22031106054782867,-0.10234900563955307,-0.6204318404197693
1788862182774989000,4.697989013671875,0.2196977436542511,-0.06893006712198257,-0.4602818489074707
1788862182785031200,4.70803125,0.28667330741882324,-0.0870392918586731,-0.467391699552536
1788862182795073300,4.7180732421875,0.3953379988670349,-0.16383101046085358,-0.6265424489974976
1788862182805114400,4.7281142578125,0.5312204957008362,-0.2957365810871124,-0.8252073526382446
1788862182815156200,4.73815625,0.5837129950523376,-0.36031636595726013,-0.9798283576965332
1788862182825198000,4.748197998046875,0.5388607978820801,-0.4379081130027771,-0.9313670992851257
1788862182835239200,4.7582392578125,0.40479356050491333,-0.5005621910095215,-0.6167923808097839
1788862182845281000,4.768281005859375,0.3137272894382477,-0.26788684725761414,-0.23887649178504944
1788862182855323100,4.7783232421875,0.29569557309150696,-0.048292696475982666,-0.06542481482028961
1788862182865364000,4.788364013671875,0.36622458696365356,-0.008645153604447842,-0.07028721272945404
1788862182875406300,4.79840625,0.4872599244117737,-0.11095554381608963,-0.1099826917052269
1788862182885448200,4.8084482421875,0.5558589696884155,-0.17357711493968964,-0.05859806388616562
1788862182895489300,4.8184892578125,0.541391909122467,-0.11645923554897308,-0.07088003307580948
1788862182905531100,4.82853125,0.43272480368614197,-0.1322893351316452,-0.021350828930735588
1788862182915573200,4.8385732421875,0.28951331973075867,-0.19721905887126923,0.11127885431051254
1788862182925614000,4.848614013671875,0.18804500997066498,-0.23744291067123413,0.20168544352054596
1788862182935656200,4.85865625,0.15227502584457397,-0.19052760303020477,0.1871243566274643
1788862182945698300,4.8686982421875,0.12732839584350586,-0.1662856489419937,0.22070015966892242
1788862182955740200,4.878740234375,0.09729539602994919,-0.03652392327785492,0.31316855549812317
1788862182965781200,4.88878125,0.021619008854031563,0.06873245537281036,0.40321084856987
1788862182975823000,4.898822998046875,-0.0495758093893528,0.08260486274957657,0.38104403018951416
1788862182985864200,4.9088642578125,-0.12100738286972046,-0.059850551187992096,0.3350485563278198
1788862182995906000,4.918906005859375,-0.2145967185497284,-0.286918044090271,0.18983517587184906
1788862183005948200,4.9289482421875,-0.20867997407913208,-0.474759578704834,-0.11184237897396088
1788862183015990300,4.938990234375,-0.17534199357032776,-0.5384730696678162,-0.3341103196144104
1788862183026031400,4.94903125,-0.19719189405441284,-0.5103636384010315,-0.3838467299938202
1788862183036073200,4.9590732421875,-0.24145257472991943,-0.5156857371330261,-0.385807603597641
1788862183046115000,4.969114990234375,-0.17483839392662048,-0.7030563950538635,-0.4447934329509735
1788862183056156200,4.97915625,-0.10474798083305359,-0.8759198188781738,-0.2749282419681549
1788862183066198000,4.989197998046875,-0.08837726712226868,-0.7539371848106384,-0.05771709233522415
1788862183076240100,4.999240234375,-0.11458569765090942,-0.5974317193031311,-0.004007258452475071
1788862183086281000,5.009281005859375,-0.15769481658935547,-0.49504461884498596,-0.038665104657411575
1788862183096323300,5.0193232421875,-0.21274156868457794,-0.4638963043689728,-0.14444319903850555
1788862183106365200,5.029365234375,-0.28436142206192017,-0.48773983120918274,-0.21642711758613586
1788862183116406300,5.03940625,-0.3174954056739807,-0.5050266981124878,-0.25512123107910156
1788862183126448000,5.0494482421875,-0.3315052390098572,-0.5432345271110535,-0.3154381215572357
1788862183136490000,5.059489990234375,-0.3752998411655426,-0.5919581055641174,-0.34282979369163513
1788862183146531000,5.069531005859375,-0.4303676187992096,-0.5550957322120667,-0.3492352366447449
1788862183156573200,5.0795732421875,-0.5123541355133057,-0.41681399941444397,-0.28360775113105774
1788862183166615300,5.089615234375,-0.5828434824943542,-0.35323530435562134,-0.17440535128116608
1788862183176656100,5.09965625,-0.6188632249832153,-0.3575032651424408,-0.12933561205863953
1788862183186698200,5.1096982421875,-0.6400207281112671,-0.3310546278953552,-0.17006999254226685
1788862183196740400,5.119740234375,-0.6457555890083313,-0.19136303663253784,-0.1843021959066391
1788862183206781400,5.129781494140625,-0.6345971822738647,-0.05548722669482231,-0.20272621512413025
1788862183216823300,5.1398232421875,-0.6281960010528564,0.023314377292990685,-0.2896925210952759
1788862183226865400,5.149865478515625,-0.6226542592048645,0.12799738347530365,-0.40054580569267273
1788862183236906200,5.15990625,-0.5916547775268555,0.15984027087688446,-0.5122185349464417
1788862183246948400,5.1699482421875,-0.544083833694458,0.15163719654083252,-0.6054531335830688
1788862183256990200,5.179990234375,-0.49182114005088806,0.1968478113412857,-0.6159337759017944
1788862183267031300,5.19003125,-0.4151553809642792,0.36994555592536926,-0.5724377036094666
1788862183277073400,5.200073486328125,-0.2922646105289459,0.5806652307510376,-0.5270252227783203
1788862183287115300,5.210115234375,-0.21198496222496033,0.7118264436721802,-0.4840431213378906
1788862183297157400,5.220157470703125,-0.19822999835014343,0.7690868377685547,-0.4348372220993042
1788862183307198200,5.2301982421875,-0.2325802445411682,0.6585022807121277,-0.3355870544910431
1788862183317240300,5.240240234375,-0.24937494099140167,0.5629408359527588,-0.16946759819984436
1788862183327282200,5.2502822265625,-0.23721681535243988,0.5445690155029297,0.04533099755644798
1788862183337323300,5.2603232421875,-0.22999592125415802,0.5522751808166504,0.23732733726501465
1788862183347365400,5.270365478515625,-0.19784463942050934,0.7149460911750793,0.3788232207298279
1788862183357407200,5.2804072265625,-0.16181740164756775,0.8145914673805237,0.3943347930908203
1788862183367448300,5.2904482421875,-0.19566643238067627,0.6530294418334961,0.32835471630096436
1788862183377490200,5.300490234375,-0.3040560185909271,0.6019977331161499,0.39451083540916443
1788862183387532300,5.3105322265625,-0.3862009644508362,0.7844018936157227,0.5772798657417297
1788862183397573000,5.320572998046875,-0.40825167298316956,0.9277520775794983,0.6345668435096741
1788862183407615200,5.330615234375,-0.42032432556152344,1.0036996603012085,0.5927852988243103
1788862183417657300,5.3406572265625,-0.4361104667186737,0.9452325701713562,0.5598449110984802
1788862183427698400,5.350698486328125,-0.4393603205680847,0.9104381203651428,0.5593820810317993
1788862183437740300,5.360740234375,-0.42958706617355347,0.9512646198272705,0.5719234347343445
1788862183447782400,5.370782470703125,-0.4259377121925354,0.9760165810585022,0.5780636072158813
1788862183457823200,5.3808232421875,-0.45472943782806396,0.9566639065742493,0.5775389671325684
1788862183467865300,5.390865234375,-0.5100376605987549,1.0191363096237183,0.5869646668434143
1788862183477907200,5.4009072265625,-0.5665014982223511,1.1200264692306519,0.611570417881012
1788862183487948300,5.4109482421875,-0.5930715799331665,1.193910837173462,0.6252449750900269
1788862183497990400,5.420990478515625,-0.5930827856063843,1.2341842651367188,0.6323609352111816
1788862183508032300,5.4310322265625,-0.5714557766914368,1.2346888780593872,0.6543000340461731
1788862183518074400,5.441074462890625,-0.5344588756561279,1.2273297309875488,0.6883552074432373
1788862183528115200,5.451115234375,-0.49031537771224976,1.226104497909546,0.7364987730979919
1788862183538157300,5.4611572265625,-0.4412764608860016,1.2128599882125854,0.7925785779953003
1788862183548199200,5.47119921875,-0.3763059973716736,1.1369743347167969,0.8400667309761047
1788862183558240300,5.481240234375,-0.30106210708618164,0.9966438412666321,0.912670910358429
1788862183568282400,5.491282470703125,-0.24881941080093384,0.8724499940872192,1.0157262086868286
1788862183578324200,5.50132421875,-0.22849228978157043,0.8494234681129456,1.0964937210083008
1788862183588365300,5.511365234375,-0.2009115368127823,0.8177140355110168,1.106476068496704
1788862183598407200,5.5214072265625,-0.16593649983406067,0.6713371276855469,1.0483258962631226
1788862183608449300,5.53144921875,-0.09475526958703995,0.446102112531662,0.9845842123031616
1788862183618490000,5.541489990234375,0.01110484916716814,0.24253354966640472,0.9213506579399109
1788862183628532200,5.5515322265625,0.09255976229906082,0.16532771289348602,0.8858509659767151
1788862183638574300,5.56157421875,0.11894263327121735,0.1830981820821762,0.8959022760391235
1788862183648615400,5.571615478515625,0.0678647980093956,0.30160433053970337,0.9266855120658875
1788862183658657300,5.5816572265625,-0.01973988302052021,0.40331578254699707,0.8990248441696167
1788862183668699400,5.591699462890625,-0.10928760468959808,0.4519514739513397,0.8392052054405212
1788862183678740200,5.601740234375,-0.19029323756694794,0.4549992084503174,0.7870392203330994
1788862183688782300,5.6117822265625,-0.27157506346702576,0.4244748651981354,0.7327083349227905
1788862183698824200,5.62182421875,-0.32427793741226196,0.4209091365337372,0.7088115215301514
1788862183708865300,5.631865234375,-0.36586320400238037,0.48051387071609497,0.7561598420143127
1788862183718907400,5.641907470703125,-0.4059451222419739,0.5877942442893982,0.8675657510757446
1788862183728949200,5.65194921875,-0.4262695610523224,0.6925124526023865,0.9809505939483643
1788862183738991400,5.661991455078125,-0.4661349356174469,0.7146989703178406,1.033794641494751
1788862183749032200,5.6720322265625,-0.5366773009300232,0.6768975257873535,1.017732858657837
1788862183759074300,5.68207421875,-0.6226699352264404,0.5970966815948486,0.961231529712677
1788862183769116400,5.692116455078125,-0.6707815527915955,0.5231527090072632,0.9145327210426331
1788862183779157500,5.702157470703125,-0.6591640710830688,0.44064876437187195,0.8854110240936279
1788862183789199400,5.712199462890625,-0.5848778486251831,0.3864787220954895,0.8981470465660095
1788862183799241200,5.7222412109375,-0.48692572116851807,0.41821110248565674,0.9519490599632263
1788862183809282300,5.7322822265625,-0.396004855632782,0.49311861395835876,1.022277593612671
1788862183819324200,5.74232421875,-0.3307262659072876,0.5418339967727661,1.0679523944854736
1788862183829366300,5.7523662109375,-0.26215144991874695,0.5241183638572693,1.0735596418380737
1788862183839407000,5.762406982421875,-0.19029617309570312,0.4417420029640198,1.0455541610717773
1788862183849449500,5.772449462890625,-0.14037121832370758,0.3616301119327545,1.0168849229812622
1788862183859491300,5.7824912109375,-0.09427563846111298,0.3050405979156494,1.01315438747406
1788862183869532400,5.792532470703125,-0.03985900059342384,0.24880476295948029,0.9926461577415466
1788862183879574300,5.80257421875,0.007999869994819164,0.19707658886909485,0.9490811228752136
1788862183889616100,5.8126162109375,0.03995487466454506,0.15501302480697632,0.886590301990509
1788862183899658200,5.822658203125,0.058340270072221756,0.10817813873291016,0.8307595252990723
1788862183909699300,5.83269921875,0.08327890932559967,0.06226443871855736,0.7994809746742249
1788862183919741400,5.842741455078125,0.11290205270051956,0.058822836726903915,0.8158892393112183
1788862183929783300,5.852783203125,0.1260325014591217,0.09673693031072617,0.8839241862297058
1788862183939824400,5.862824462890625,0.11770080029964447,0.13945136964321136,0.9581401348114014
1788862183949866200,5.8728662109375,0.11211215704679489,0.16296255588531494,1.0180710554122925
1788862183959908400,5.882908447265625,0.11373375356197357,0.165593221783638,1.0648646354675293
1788862183969949200,5.89294921875,0.13026106357574463,0.1269182711839676,1.0679489374160767
1788862183979991300,5.9029912109375,0.16858609020709991,0.09300770610570908,1.0068892240524292
1788862183990033400,5.913033447265625,0.20893430709838867,-0.007201720029115677,0.9156813025474548
1788862184000074500,5.923074462890625,0.25132569670677185,-0.0951656624674797,0.8459153175354004
1788862184010116400,5.933116455078125,0.28296512365341187,-0.11576814204454422,0.8350725173950195
1788862184020158200,5.943158203125,0.28897055983543396,-0.05493302270770073,0.8775509595870972
1788862184030200300,5.953200439453125,0.2542450726032257,0.006464823614805937,0.9389514923095703
1788862184040241200,5.9632412109375,0.16579082608222961,0.014462562277913094,0.9792435169219971
1788862184050283300,5.973283203125,0.05913788825273514,0.034513503313064575,1.0032145977020264
1788862184060325400,5.983325439453125,-0.06698036193847656,0.05591173470020294,1.0329291820526123
1788862184070366500,5.993366455078125,-0.2190929353237152,-0.025529062375426292,1.0753027200698853
1788862184080408300,6.003408203125,-0.33860841393470764,-0.1349724680185318,1.1188637018203735
1788862184090450200,6.0134501953125,-0.46000435948371887,-0.16101285815238953,1.154910922050476
1788862184100491300,6.0234912109375,-0.5786718726158142,-0.11142799258232117,1.1533007621765137
1788862184110533000,6.033533203125,-0.6753448843955994,-0.07665296643972397,1.1230661869049072
1788862184120575200,6.0435751953125,-0.7449743151664734,-0.12193389236927032,1.096400499343872
1788862184130616000,6.053615966796875,-0.7710239887237549,-0.20798729360103607,1.0563148260116577
1788862184140658400,6.063658447265625,-0.7350737452507019,-0.23043134808540344,1.00846266746521
1788862184150700300,6.0737001953125,-0.6781699657440186,-0.1756003201007843,0.9830688834190369
1788862184160742400,6.083742431640625,-0.6397493481636047,-0.04098658263683319,0.9749342799186707
1788862184170783200,6.093783203125,-0.6344349980354309,0.08341632783412933,0.966385006904602
1788862184180825300,6.103825439453125,-0.6747581958770752,0.08013425022363663,0.9556761384010315
1788862184190867500,6.113867431640625,-0.7298078536987305,-0.1105659231543541,0.9514579772949219
1788862184200908500,6.123908447265625,-0.7775319814682007,-0.3876204192638397,0.9600591659545898
1788862184210950400,6.133950439453125,-0.8089349269866943,-0.5912318825721741,0.9624602794647217
1788862184220992300,6.1439921875,-0.7959168553352356,-0.6337745189666748,0.9638515114784241
1788862184231033300,6.154033447265625,-0.7517589926719666,-0.5431849956512451,0.9753715395927429
1788862184241075500,6.164075439453125,-0.6947646737098694,-0.3897879719734192,0.9664419889450073
1788862184251117600,6.17411767578125,-0.6594167947769165,-0.276640385389328,0.959670901298523
1788862184261159400,6.184159423828125,-0.6461316347122192,-0.23685301840305328,0.9505828619003296
1788862184271200500,6.194200439453125,-0.6485061049461365,-0.25197604298591614,0.8920140862464905
1788862184281242400,6.204242431640625,-0.6536606550216675,-0.33592262864112854,0.7716176509857178
1788862184291284200,6.2142841796875,-0.6331175565719604,-0.4265230894088745,0.6452093720436096
1788862184301325300,6.2243251953125,-0.5983361005783081,-0.4752117991447449,0.5629469752311707
1788862184311367400,6.234367431640625,-0.5252086520195007,-0.5154913067817688,0.5173134207725525
1788862184321409500,6.244409423828125,-0.4747747778892517,-0.6027156710624695,0.4778600335121155
1788862184331450400,6.254450439453125,-0.4459119737148285,-0.700169026851654,0.3940037488937378
1788862184341492500,6.264492431640625,-0.44277423620224,-0.7101588249206543,0.2695190906524658
1788862184351534300,6.274534423828125,-0.4515940845012665,-0.5343552827835083,0.1350635439157486
1788862184361576200,6.284576171875,-0.45286840200424194,-0.21679089963436127,0.018991800025105476
1788862184371617300,6.2946171875,-0.44593167304992676,0.014940067194402218,-0.034573156386613846
1788862184381659400,6.304659423828125,-0.4291795790195465,0.13287948071956635,-0.016824785619974136
1788862184391701500,6.314701416015625,-0.39675748348236084,0.22890348732471466,0.03958868980407715
1788862184401742300,6.324742431640625,-0.34830552339553833,0.24913153052330017,0.07516532391309738
1788862184411784400,6.334784423828125,-0.3275810480117798,0.17439790070056915,0.018144914880394936
1788862184421826300,6.344826416015625,-0.3222526013851166,0.14094966650009155,-0.1600959300994873
1788862184431867400,6.354867431640625,-0.30968940258026123,0.22221176326274872,-0.39665892720222473
1788862184441909200,6.3649091796875,-0.25029000639915466,0.2225923240184784,-0.6048009395599365
1788862184451951600,6.37495166015625,-0.13218946754932404,0.11936820298433304,-0.7812830209732056
1788862184461993500,6.384993408203125,0.026568492874503136,0.08537934720516205,-0.8868424892425537
1788862184472034600,6.39503466796875,0.13576768338680267,0.2527238726615906,-0.8737932443618774
1788862184482076400,6.405076416015625,0.16840019822120667,0.5237119793891907,-0.7970649600028992
1788862184492118300,6.4151181640625,0.16768433153629303,0.6778072714805603,-0.7311698198318481
1788862184502159400,6.425159423828125,0.14020425081253052,0.7099055051803589,-0.6651612520217896
1788862184512201200,6.435201171875,0.08775541931390762,0.8006229400634766,-0.5869244933128357
1788862184522243600,6.44524365234375,0.03783499822020531,1.0414190292358398,-0.5279051065444946
1788862184532285400,6.455285400390625,0.04302895814180374,1.2143542766571045,-0.5018258094787598
1788862184542326500,6.465326416015625,0.13091248273849487,1.1477646827697754,-0.5251724123954773
1788862184552368400,6.475368408203125,0.265657514333725,0.9354608654975891,-0.5971677899360657
1788862184562410200,6.48541015625,0.37259140610694885,0.7778496742248535,-0.6476746201515198
1788862184572451300,6.495451416015625,0.4271790385246277,0.7772573828697205,-0.6341532468795776
1788862184582493200,6.5054931640625,0.4673488140106201,0.8609307408332825,-0.5577207803726196
1788862184592535600,6.51553564453125,0.4880557060241699,0.9492262601852417,-0.4551011919975281
1788862184602576400,6.525576416015625,0.4561174511909485,1.0288594961166382,-0.34841790795326233
1788862184612618500,6.535618408203125,0.3936719298362732,1.0709679126739502,-0.26915237307548523
1788862184622660400,6.545660400390625,0.3837772309780121,1.062842607498169,-0.24599485099315643
1788862184632702500,6.555702392578125,0.44455668330192566,0.9801511168479919,-0.2684490382671356
1788862184642743300,6.565743408203125,0.5834405422210693,0.8580084443092346,-0.31407830119132996
1788862184652785400,6.575785400390625,0.7440598011016846,0.7611828446388245,-0.3757011890411377
1788862184662827500,6.58582763671875,0.8766465783119202,0.6850531697273254,-0.4526662826538086
1788862184672868600,6.59586865234375,0.9638959765434265,0.6620927453041077,-0.5536254048347473
1788862184682910500,6.605910400390625,1.0353246927261353,0.682310938835144,-0.6693160533905029
1788862184692952300,6.615952392578125,1.1288386583328247,0.7009631395339966,-0.7888994216918945
1788862184702994400,6.625994384765625,1.2441755533218384,0.7078245282173157,-0.9231099486351013
1788862184713035300,6.63603515625,1.352964162826538,0.7105748057365417,-1.0327807664871216
1788862184723077400,6.646077392578125,1.4117560386657715,0.7447766661643982,-1.0608099699020386
1788862184733119500,6.656119384765625,1.4171955585479736,0.8259695768356323,-1.00406014919281
1788862184743160600,6.66616064453125,1.3906683921813965,0.8881402611732483,-0.8881120085716248
1788862184753202400,6.676202392578125,1.3302769660949707,0.8868682980537415,-0.7341001033782959
1788862184763244300,6.686244384765625,1.23336660861969,0.7994905114173889,-0.5647504925727844
1788862184773286400,6.696286376953125,1.1006602048873901,0.6436255574226379,-0.42487671971321106
1788862184783327200,6.7063271484375,0.9528287053108215,0.440572589635849,-0.3544827103614807
1788862184793369300,6.716369384765625,0.8091013431549072,0.2143154889345169,-0.34751614928245544
1788862184803411500,6.726411376953125,0.6881605386734009,0.001600559800863266,-0.3824288547039032
1788862184813452500,6.73645263671875,0.5942444205284119,-0.09875480830669403,-0.4431532025337219
1788862184823494400,6.746494384765625,0.5005429983139038,-0.06082340329885483,-0.5251806974411011
1788862184833536500,6.75653662109375,0.4140070378780365,0.06693509221076965,-0.6318458914756775
1788862184843577300,6.766577392578125,0.3322890102863312,0.18765617907047272,-0.7476627826690674
1788862184853619500,6.776619384765625,0.24490082263946533,0.264726459980011,-0.8356666564941406
1788862184863661600,6.78666162109375,0.16040804982185364,0.2591402232646942,-0.8614774942398071
1788862184873703400,6.796703369140625,0.0779603123664856,0.22337476909160614,-0.8356280326843262
1788862184883744500,6.80674462890625,0.012173841707408428,0.186773881316185,-0.7897292375564575
1788862184893786400,6.816786376953125,-0.04225877299904823,0.16948942840099335,-0.7452981472015381
1788862184903828500,6.826828369140625,-0.09603864699602127,0.15658853948116302,-0.7281540632247925
1788862184913869300,6.836869384765625,-0.14272253215312958,0.14763179421424866,-0.7560890316963196
1788862184923911400,6.846911376953125,-0.14538729190826416,0.0963720753788948,-0.8066267371177673
1788862184933953500,6.85695361328125,-0.09313526749610901,0.04983839765191078,-0.8595616221427917
1788862184943995400,6.866995361328125,-0.029166141524910927,0.031008249148726463,-0.8827939629554749
1788862184954036500,6.877036376953125,0.01498241163790226,0.047324370592832565,-0.8532770872116089
1788862184964078300,6.887078369140625,0.04375893250107765,0.11492978036403656,-0.7804582715034485
1788862184974120400,6.897120361328125,0.0500519834458828,0.1739528924226761,-0.6656177043914795
1788862184984161300,6.907161376953125,0.012945359572768211,0.1639319509267807,-0.548273503780365
1788862184994203400,6.917203369140625,0.016769126057624817,0.07674723863601685,-0.47377556562423706
1788862185004245500,6.92724560546875,0.01884186454117298,-0.04422072321176529,-0.48779258131980896
1788862185014287400,6.937287353515625,0.017789382487535477,-0.12541277706623077,-0.6065288186073303
1788862185024328400,6.947328369140625,0.01872042380273342,-0.19308529794216156,-0.7820231318473816
1788862185034370300,6.957370361328125,0.03833380714058876,-0.2635301649570465,-0.9364569187164307
1788862185044412400,6.967412353515625,0.0777169018983841,-0.2981257140636444,-1.033419132232666
1788862185054453200,6.977453369140625,0.10424678027629852,-0.3036363124847412,-1.0592429637908936
1788862185064495400,6.987495361328125,0.10991984605789185,-0.2396288365125656,-1.0060548782348633
1788862185074537500,6.997537353515625,0.10541324317455292,-0.05269649997353554,-0.8762276768684387
1788862185084579600,7.00757958984375,0.10316792875528336,0.19179153442382812,-0.729316234588623
1788862185094620400,7.017620361328125,0.11106447130441666,0.3488650321960449,-0.5887516736984253
1788862185104662500,7.02766259765625,0.12136024981737137,0.3875645101070404,-0.5142984986305237
1788862185114704400,7.037704345703125,0.12730149924755096,0.2712613344192505,-0.5336405038833618
1788862185124745500,7.047745361328125,0.16188716888427734,0.06035735085606575,-0.48886075615882874
1788862185134787300,7.057787353515625,0.21745428442955017,-0.05530773103237152,-0.33019763231277466
1788862185144829400,7.067829345703125,0.22472631931304932,-0.023868581280112267,-0.2305847406387329
1788862185154871600,7.07787158203125,0.19994933903217316,-0.02594131976366043,-0.25779905915260315
1788862185164912400,7.087912353515625,0.19377613067626953,-0.09348388016223907,-0.5084065198898315
1788862185174954500,7.09795458984375,0.2233681082725525,-0.24189811944961548,-0.7083566188812256
1788862185184996400,7.107996337890625,0.22246795892715454,-0.36484721302986145,-0.7353842854499817
1788862185195038200,7.1180380859375,0.16344058513641357,-0.34934282302856445,-0.7895811796188354
1788862185205080000,7.128080078125,0.10645320266485214,-0.2745913565158844,-0.9680675864219666
1788862185215122000,7.138121826171875,0.06010754406452179,-0.3435980975627899,-1.1525324583053589
1788862185225164000,7.1481640625,0.0013933659065514803,-0.5879884362220764,-1.2134757041931152
1788862185235204900,7.158204833984375,-0.044066525995731354,-0.7308688759803772,-1.22147536277771
1788862185245247200,7.168247314453125,-0.08349009603261948,-0.7125769257545471,-1.226410150527954
1788862185255289000,7.1782890625,-0.1360294669866562,-0.6862598657608032,-1.2095822095870972
1788862185265330200,7.188330078125,-0.20343008637428284,-0.6387980580329895,-1.172306776046753
1788862185275372000,7.1983720703125,-0.26149073243141174,-0.5991225838661194,-1.1632522344589233
1788862185285414000,7.208413818359375,-0.27183523774147034,-0.6342653632164001,-1.2191866636276245
1788862185295456000,7.2184560546875,-0.20857317745685577,-0.6967865228652954,-1.319340705871582
1788862185305496800,7.228496826171875,-0.12032667547464371,-0.6368483901023865,-1.375421166419983
1788862185315539200,7.238539306640625,-0.03339071199297905,-0.5128198862075806,-1.3471189737319946
1788862185325581000,7.2485810546875,0.04613607004284859,-0.40521886944770813,-1.2516489028930664
1788862185335622100,7.2586220703125,0.07378527522087097,-0.26721999049186707,-1.224694848060608
1788862185345664000,7.2686640625,0.05192924290895462,-0.1574372947216034,-1.1654008626937866
1788862185355705900,7.278705810546875,-0.0038986015133559704,-0.04494404047727585,-1.1202781200408936
1788862185365748000,7.288748046875,-0.04272376000881195,-0.02961541712284088,-1.1671316623687744
1788862185375788800,7.298788818359375,-0.014803446829319,-0.12473021447658539,-1.2807596921920776
1788862185385831200,7.3088310546875,0.009765544906258583,-0.2377081662416458,-1.3302558660507202
1788862185395873000,7.318873046875,0.029198631644248962,-0.26445695757865906,-1.3161171674728394
1788862185405914000,7.3289140625,0.015005847439169884,-0.2199920117855072,-1.2657501697540283
1788862185415956000,7.3389560546875,-0.003686081152409315,-0.22838976979255676,-1.2438772916793823
1788862185425998000,7.348998046875,-0.01399011816829443,-0.22526215016841888,-1.2098122835159302
1788862185436040000,7.3590400390625,-0.008946090936660767,-0.13788169622421265,-1.143165111541748
1788862185446081000,7.3690810546875,0.01733478158712387,-0.01599707640707493,-1.1053767204284668
1788862185456123100,7.379123046875,0.046963512897491455,0.024415593594312668,-1.07512366771698
1788862185466165000,7.3891650390625,0.08338730037212372,-0.07007548958063126,-1.0644961595535278
1788862185476207000,7.39920703125,0.11840174347162247,-0.06769276410341263,-1.0841102600097656
1788862185486248000,7.409248046875,0.17357179522514343,0.0179411843419075,-1.0851508378982544
1788862185496290000,7.4192900390625,0.24395860731601715,0.043893154710531235,-1.059415340423584
1788862185506332000,7.429331787109375,0.2889508306980133,-0.0017715347930788994,-1.0215708017349243
1788862185516373000,7.439373046875,0.33768242597579956,-0.02232714369893074,-0.9511796832084656
1788862185526415000,7.4494150390625,0.36169081926345825,-0.03706427663564682,-0.9037831425666809
1788862185536457000,7.45945703125,0.3787310719490051,-0.04499117657542229,-0.9144794344902039
1788862185546499000,7.4694990234375,0.39228975772857666,-0.08350981026887894,-0.9351814985275269
1788862185556540000,7.479539794921875,0.3980525732040405,-0.14523948729038239,-0.9226177930831909
1788862185566582000,7.48958203125,0.37958672642707825,-0.08375002443790436,-0.8969539999961853
1788862185576623900,7.499623779296875,0.37752437591552734,0.08924785256385803,-0.8566925525665283
1788862185586665200,7.509665283203125,0.34128302335739136,0.10759756714105606,-0.7804593443870544
1788862185596707000,7.51970703125,0.28465303778648376,-0.10569633543491364,-0.6846614480018616
1788862185606749200,7.529749267578125,0.21315622329711914,-0.19117635488510132,-0.6464317440986633
1788862185616791000,7.539791015625,0.1316126137971878,-0.14541152119636536,-0.4934227466583252
1788862185626832100,7.54983203125,0.05450611934065819,-0.09169290214776993,-0.2817288935184479
1788862185636874000,7.5598740234375,0.002508697798475623,-0.031750474125146866,-0.15445534884929657
1788862185646916000,7.569916015625,-0.04675126075744629,0.020919928327202797,-0.08708829432725906
1788862185656957200,7.579957275390625,-0.12672917544841766,0.053525809198617935,0.009080846793949604
1788862185666999000,7.5899990234375,-0.2381499856710434,0.09695716947317123,0.1390705406665802
1788862185677041200,7.600041259765625,-0.344780296087265,0.18127870559692383,0.24985484778881073
1788862185687083000,7.6100830078125,-0.4108210802078247,0.2369544953107834,0.35992541909217834
1788862185697124000,7.6201240234375,-0.4074988067150116,0.27046239376068115,0.4281143248081207
1788862185707166000,7.630166015625,-0.3986983895301819,0.2795022130012512,0.46787798404693604
1788862185717208000,7.6402080078125,-0.44503071904182434,0.2489704042673111,0.5241755843162537
1788862185727250200,7.650250244140625,-0.5457379221916199,0.2782641053199768,0.6004487872123718
1788862185737291000,7.660291015625,-0.6349548697471619,0.3303379714488983,0.6459446549415588
1788862185747333000,7.6703330078125,-0.6601771116256714,0.37622448801994324,0.7011508941650391
1788862185757375000,7.680375,-0.6405818462371826,0.41588670015335083,0.7550327777862549
1788862185767416000,7.690416015625,-0.6329886317253113,0.40703701972961426,0.8111072778701782
1788862185777458000,7.7004580078125,-0.6635726690292358,0.37466949224472046,0.8730457425117493
1788862185787500000,7.7105,-0.7271348237991333,0.36049240827560425,0.9537562727928162
1788862185797542100,7.720542236328125,-0.7570669054985046,0.36859986186027527,1.0461479425430298
1788862185807583000,7.7305830078125,-0.7292104959487915,0.35729101300239563,1.1030911207199097
1788862185817625000,7.740625,-0.6587517857551575,0.32522788643836975,1.1529500484466553
1788862185827667000,7.7506669921875,-0.5952082276344299,0.28013017773628235,1.2205240726470947
1788862185837708000,7.7607080078125,-0.5603693127632141,0.2720181941986084,1.2910640239715576
1788862185847750000,7.77075,-0.51540207862854,0.33464401960372925,1.3367518186569214
1788862185857792300,7.780792236328125,-0.4668121933937073,0.43572351336479187,1.3493750095367432
1788862185867834000,7.790834228515625,-0.41271698474884033,0.49507445096969604,1.3341747522354126
1788862185877875200,7.800875244140625,-0.35271596908569336,0.5004338026046753,1.3164775371551514
1788862185887917000,7.8109169921875,-0.2964513599872589,0.46087467670440674,1.289103627204895
1788862185897959000,7.820958984375,-0.23078075051307678,0.4248564839363098,1.2639199495315552
1788862185908001000,7.8310009765625,-0.1549309939146042,0.3614109456539154,1.2315428256988525
1788862185918041900,7.841041748046875,-0.07798614352941513,0.2720744013786316,1.2042055130004883
1788862185928084200,7.851084228515625,0.0008833705214783549,0.2699079215526581,1.2155330181121826
1788862185938126000,7.8611259765625,0.06532281637191772,0.31647035479545593,1.2775508165359497
1788862185948167200,7.871167236328125,0.11561740934848785,0.36014485359191895,1.3431838750839233
1788862185958209000,7.881208984375,0.14061038196086884,0.34164494276046753,1.3811395168304443
1788862185968251000,7.8912509765625,0.16440385580062866,0.2631767690181732,1.380710244178772
1788862185978293000,7.90129296875,0.1711491048336029,0.1825152188539505,1.369126319885254
1788862185988333800,7.911333740234375,0.15613341331481934,0.12889167666435242,1.3876690864562988
1788862185998376200,7.921376220703125,0.12620453536510468,0.11280325055122375,1.4160032272338867
1788862186008418000,7.93141796875,0.08458732068538666,0.0879461020231247,1.4285699129104614
1788862186018460200,7.941460205078125,0.04476027935743332,0.054847002029418945,1.4233990907669067
1788862186028501000,7.9515009765625,0.013497699052095413,-0.0018868496408686042,1.4011540412902832
1788862186038543000,7.961543212890625,-0.023998809978365898,-0.047564323991537094,1.3959299325942993
1788862186048585000,7.9715849609375,-0.07308539748191833,-0.038307443261146545,1.4195612668991089
1788862186058626000,7.9816259765625,-0.13570669293403625,0.01571584679186344,1.4785758256912231
1788862186068668200,7.991668212890625,-0.1927337646484375,0.08497294783592224,1.527963399887085
1788862186078710000,8.0017099609375,-0.23270541429519653,0.12100684642791748,1.5608779191970825
1788862186088752000,8.011752197265626,-0.24249546229839325,0.12615419924259186,1.5964680910110474
1788862186098793000,8.02179296875,-0.24300998449325562,0.12547004222869873,1.6469286680221558
1788862186108835000,8.0318349609375,-0.2518809735774994,0.12179701030254364,1.6783944368362427
1788862186118877000,8.041876953125,-0.2629975378513336,0.11596628278493881,1.6716665029525757
1788862186128918000,8.05191796875,-0.26899629831314087,0.10711153596639633,1.634960651397705
1788862186138960100,8.061960205078124,-0.2541390657424927,0.07633471488952637,1.5823416709899902
1788862186149002000,8.072001953125,-0.202037513256073,0.022400647401809692,1.5335471630096436
1788862186159044000,8.082044189453125,-0.13821247220039368,-0.010479538701474667,1.4911528825759888
1788862186169085000,8.0920849609375,-0.08627523481845856,-0.03224928304553032,1.4413526058197021
1788862186179127000,8.102126953125,-0.0518842376768589,-0.04519757255911827,1.3812404870986938
1788862186189169000,8.1121689453125,-0.03961292281746864,-0.048834916204214096,1.322041630744934
1788862186199211000,8.1222109375,-0.030306240543723106,-0.004822984803467989,1.291106104850769
1788862186209251800,8.132251953125,0.00808908510953188,0.05878235772252083,1.2913018465042114
1788862186219294000,8.1422939453125,0.06862060725688934,0.13572028279304504,1.2804824113845825
1788862186229336000,8.152336181640624,0.1319066286087036,0.19210419058799744,1.254573106765747
1788862186239377000,8.162376953125,0.19345174729824066,0.2243177890777588,1.217208981513977
1788862186249419000,8.1724189453125,0.2339043766260147,0.23054265975952148,1.1822296380996704
1788862186259460900,8.1824609375,0.2785525321960449,0.2023317962884903,1.1364121437072754
1788862186269503000,8.1925029296875,0.31743600964546204,0.15014369785785675,1.0831283330917358
1788862186279543800,8.202543701171875,0.33090150356292725,0.09657074511051178,1.0380562543869019
1788862186289586000,8.2125859375,0.331817626953125,0.0826549306511879,0.9716982841491699
1788862186299628000,8.2226279296875,0.334361732006073,0.0704222321510315,0.8755799531936646
1788862186309670000,8.232669921875,0.3322727382183075,0.03171691671013832,0.7668606638908386
1788862186319711000,8.2427109375,0.3094675838947296,-0.004070907831192017,0.6726465821266174
1788862186329752800,8.2527529296875,0.27369120717048645,-0.010182863101363182,0.5989766120910645
1788862186339795000,8.262794921875,0.24065974354743958,-0.005654956214129925,0.5653235912322998
1788862186349835800,8.272835693359376,0.20808608829975128,0.028003672137856483,0.5553942322731018
1788862186359878000,8.2828779296875,0.18816538155078888,0.10505317896604538,0.5695255398750305
1788862186369920000,8.292919921875,0.1878170371055603,0.19513913989067078,0.58795166015625
1788862186379961900,8.3029619140625,0.19511596858501434,0.2586781680583954,0.5915365219116211
1788862186390003000,8.3130029296875,0.20093603432178497,0.29856592416763306,0.5702746510505676
1788862186400044800,8.323044921875,0.18584497272968292,0.3006732761859894,0.5112249255180359
1788862186410087000,8.3330869140625,0.16856583952903748,0.25403493642807007,0.4120197892189026
1788862186420128800,8.343128662109375,0.15283802151679993,0.1875467300415039,0.2781440019607544
1788862186430169900,8.353169921875,0.15017245709896088,0.09421437978744507,0.1171892061829567
1788862186440212000,8.3632119140625,0.15636883676052094,-0.010757572948932648,-0.02803776040673256
1788862186450254000,8.373254150390625,0.14847974479198456,-0.05133216455578804,-0.11941614001989365
1788862186460295000,8.383294921875,0.13429468870162964,0.012196478433907032,-0.15240871906280518
1788862186470337000,8.3933369140625,0.14623577892780304,0.12217304855585098,-0.17960332334041595
1788862186480379000,8.40337890625,0.17491668462753296,0.22073982656002045,-0.19584167003631592
1788862186490420700,8.413420654296875,0.17588607966899872,0.3293222486972809,-0.1963423490524292
1788862186500461800,8.4234619140625,0.12892095744609833,0.4340299963951111,-0.184534952044487
1788862186510504000,8.43350390625,0.0656096339225769,0.4588906168937683,-0.1866401880979538
1788862186520546000,8.443546142578125,0.02623453363776207,0.35159772634506226,-0.2361973524093628
1788862186530588000,8.453587890625,0.004881840664893389,0.18501512706279755,-0.3241117596626282
1788862186540629000,8.46362890625,0.010325607843697071,0.06706158816814423,-0.4016142785549164
1788862186550670800,8.4736708984375,0.02857438661158085,0.027591681107878685,-0.4083840250968933
1788862186560712700,8.483712646484374,0.051907140761613846,0.051185157150030136,-0.3448426127433777
1788862186570753800,8.49375390625,0.06695826351642609,0.08705473691225052,-0.2467658370733261
1788862186580796000,8.5037958984375,0.06776946038007736,0.07874701172113419,-0.1554654836654663
1788862186590838000,8.513838134765624,0.07169628888368607,0.04938992112874985,-0.10037507116794586
1788862186600879900,8.5238798828125,0.07983517646789551,0.03447195515036583,-0.0941464751958847
1788862186610921000,8.5339208984375,0.09817317128181458,0.028497954830527306,-0.14989228546619415
1788862186620962800,8.543962890625,0.11581581830978394,0.006399309728294611,-0.2451746016740799
1788862186631005000,8.5540048828125,0.11399447917938232,-0.028377046808600426,-0.3677383363246918
1788862186641045800,8.564045654296875,0.09871086478233337,-0.03869200125336647,-0.49869847297668457
1788862186651088000,8.574087890625,0.08102188259363174,0.002380067016929388,-0.6156370639801025
1788862186661130000,8.5841298828125,0.07746576517820358,0.05711574852466583,-0.7107729315757751
1788862186671171800,8.594171875,0.08288343250751495,0.11668799817562103,-0.7654367089271545
1788862186681213000,8.604212890625,0.07289977371692657,0.20334166288375854,-0.7806992530822754
1788862186691254800,8.6142548828125,0.04295732080936432,0.3067929446697235,-0.7670612335205078
1788862186701297000,8.624296875,0.028907548636198044,0.4169620871543884,-0.732520580291748
1788862186711339000,8.634339111328124,0.025304557755589485,0.46257537603378296,-0.6860686540603638
1788862186721380000,8.644380126953125,0.016750751063227654,0.4273665249347687,-0.6546750068664551
1788862186731422000,8.654421875,0.01774544082581997,0.3064483404159546,-0.6578851938247681
1788862186741463800,8.6644638671875,0.030073480680584908,0.11944516748189926,-0.6814318299293518
1788862186751505000,8.6745048828125,0.04164571315050125,-0.08925211429595947,-0.7196273803710938
1788862186761546800,8.684546630859375,0.05823587626218796,-0.22255690395832062,-0.7903399467468262
1788862186771588900,8.6945888671875,0.07295463234186172,-0.24644041061401367,-0.8527785539627075
1788862186781631000,8.704630859375,0.08465949445962906,-0.20336270332336426,-0.886605978012085
1788862186791672000,8.714672119140625,0.08144958317279816,-0.09892604500055313,-0.8747938275337219
1788862186801714000,8.7247138671875,0.07363693416118622,0.0527590848505497,-0.843856155872345
1788862186811755800,8.734755859375,0.055878978222608566,0.21288776397705078,-0.8321725726127625
1788862186821796900,8.744796875,0.03928668424487114,0.31305670738220215,-0.8359242081642151
1788862186831838700,8.754838623046876,0.021265607327222824,0.3178360164165497,-0.8662197589874268
1788862186841880800,8.764880859375,0.02628939412534237,0.22121228277683258,-0.8979904651641846
1788862186851923000,8.7749228515625,0.05149142071604729,0.09480959922075272,-0.9231581687927246
1788862186861964000,8.784964111328126,0.023119967430830002,0.019937489181756973,-0.9646307826042175
1788862186872006000,8.795005859375,0.01702425628900528,-0.04933718964457512,-1.0140774250030518
1788862186882048000,8.805048095703125,0.030773891136050224,-0.14306101202964783,-1.0280486345291138
1788862186892089900,8.81508984375,0.037096500396728516,-0.225849911570549,-0.9890045523643494
1788862186902131000,8.825130859375,0.02959810569882393,-0.26329103112220764,-0.9550029039382935
1788862186912172800,8.8351728515625,0.0030370689928531647,-0.24243633449077606,-0.9561731219291687
1788862186922215000,8.84521484375,-0.02148957923054695,-0.2104850709438324,-0.9717065095901489
1788862186932256000,8.855256103515625,-0.026861708611249924,-0.17783817648887634,-0.994706928730011
1788862186942297900,8.8652978515625,-0.021519672125577927,-0.12925279140472412,-1.074589729309082
1788862186952340000,8.875340087890624,-0.011535216122865677,-0.03863207995891571,-1.1728864908218384
1788862186962381800,8.8853818359375,0.02454635500907898,0.002659166231751442,-1.2521544694900513
1788862186972423000,8.8954228515625,0.0460955910384655,-0.07609210163354874,-1.2841768264770508
1788862186982465000,8.905465087890626,0.03762860223650932,-0.20272301137447357,-1.2343666553497314
1788862186992507000,8.9155068359375,0.015982428565621376,-0.27108317613601685,-1.127794861793518
1788862187002548000,8.9255478515625,0.01684289611876011,-0.2525443732738495,-1.0352742671966553
1788862187012589800,8.93558984375,0.03489566594362259,-0.16748486459255219,-1.0657973289489746
1788862187022632000,8.9456318359375,0.053693853318691254,-0.1118524968624115,-1.217665433883667
1788862187032673800,8.955673828125,0.06337737292051315,-0.20465780794620514,-1.3485277891159058
1788862187042715000,8.96571484375,0.03789997845888138,-0.34819766879081726,-1.3778904676437378
1788862187052757000,8.975757080078125,-0.007870972156524658,-0.4268738329410553,-1.3512935638427734
1788862187062799000,8.985799072265625,-0.06534384936094284,-0.41438359022140503,-1.3204174041748047
1788862187072841000,8.995841064453124,-0.10596264898777008,-0.38184377551078796,-1.3003472089767456
1788862187082882000,9.005882080078125,-0.12081057578325272,-0.3756375312805176,-1.2855565547943115
1788862187092924000,9.015923828125,-0.10812007635831833,-0.41741347312927246,-1.2976382970809937
1788862187102965800,9.0259658203125,-0.073736272752285,-0.4434133768081665,-1.3255468606948853
1788862187113006800,9.0360068359375,-0.027778102084994316,-0.485734224319458,-1.3224149942398071
1788862187123049000,9.046049072265625,0.03634335845708847,-0.5492141246795654,-1.3157751560211182
1788862187133091000,9.056091064453126,0.10477301478385925,-0.5872781276702881,-1.3078254461288452
1788862187143133000,9.0661328125,0.1677546501159668,-0.5754968523979187,-1.3096762895584106
1788862187153174000,9.076174072265625,0.20261569321155548,-0.5707894563674927,-1.3317259550094604
1788862187163216000,9.0862158203125,0.19053053855895996,-0.5834402441978455,-1.3330684900283813
1788862187173257700,9.0962578125,0.17509591579437256,-0.5517550706863403,-1.311970591545105
1788862187183298800,9.106298828125,0.14944034814834595,-0.48460957407951355,-1.2704119682312012
1788862187193340000,9.11633984375,0.160772904753685,-0.4522838592529297,-1.2409448623657227
1788862187203381800,9.1263818359375,0.19138912856578827,-0.4933401942253113,-1.2439614534378052
1788862187213423600,9.136423583984374,0.22795672714710236,-0.5148422718048096,-1.2432501316070557
1788862187223464700,9.146464599609375,0.22185756266117096,-0.49005547165870667,-1.2199286222457886
1788862187233506600,9.156506591796875,0.19313643872737885,-0.39994367957115173,-1.2246519327163696
1788862187243549000,9.166548828125,0.15748150646686554,-0.34684130549430847,-1.2503477334976196
1788862187253589800,9.17658984375,0.14226366579532623,-0.3627481162548065,-1.2640931606292725
1788862187263632000,9.1866318359375,0.12867169082164764,-0.37545883655548096,-1.2399909496307373
1788862187273673700,9.196673828125,0.11763741821050644,-0.34742027521133423,-1.2336862087249756
1788862187283715800,9.2067158203125,0.12211792171001434,-0.2783101797103882,-1.1834057569503784
1788862187293756700,9.216756591796875,0.1442493200302124,-0.14682379364967346,-1.1106878519058228
1788862187303798800,9.226798828125,0.15337331593036652,0.01537895668298006,-1.0688726902008057
1788862187313841000,9.2368408203125,0.1488581895828247,0.08156117051839828,-1.000449776649475
1788862187323882000,9.246882080078125,0.13795733451843262,0.10064565390348434,-0.912080705165863
1788862187333923800,9.256923828125,0.14751702547073364,0.13074150681495667,-0.8453032970428467
1788862187343965700,9.266965576171875,0.13954457640647888,0.12035011500120163,-0.8133139610290527
1788862187354007800,9.2770078125,0.08902521431446075,0.057008691132068634,-0.7507607936859131
1788862187364048600,9.287048583984374,0.0725967064499855,0.04603220522403717,-0.6607438325881958
1788862187374090800,9.2970908203125,0.06378989666700363,0.06518592685461044,-0.590648889541626
1788862187384132900,9.3071328125,0.05077502876520157,0.056280314922332764,-0.5500575304031372
1788862187394174700,9.3171748046875,0.06097014248371124,0.027167705819010735,-0.5302761197090149
1788862187404215800,9.3272158203125,0.04958326369524002,0.01022946834564209,-0.4813953936100006
1788862187414257700,9.337257568359375,0.059897955507040024,0.16321182250976562,-0.35495010018348694
1788862187424299800,9.3472998046875,0.06616251170635223,0.2736584544181824,-0.22845686972141266
1788862187434340600,9.357340576171875,0.03521657735109329,0.23747166991233826,-0.1587909758090973
1788862187444382700,9.3673828125,-0.010377539321780205,0.23892362415790558,-0.06358563154935837
1788862187454424800,9.3774248046875,-0.04338528960943222,0.26274001598358154,0.06300613284111023
1788862187464466700,9.387466796875,-0.06797372549772263,0.241710364818573,0.18552644550800323
1788862187474507800,9.3975078125,-0.08915038406848907,0.29654085636138916,0.3147595524787903
1788862187484550000,9.4075498046875,-0.09975109249353409,0.4024851322174072,0.454762727022171
1788862187494591700,9.417591796875,-0.11876899749040604,0.4049821197986603,0.5429208278656006
1788862187504632800,9.4276328125,-0.16043761372566223,0.35250717401504517,0.596463143825531
1788862187514675000,9.437675048828124,-0.21895845234394073,0.3536134660243988,0.6728870868682861
1788862187524716800,9.447716796875,-0.26106327772140503,0.3784697949886322,0.7887574434280396
1788862187534759000,9.457759033203125,-0.26726871728897095,0.348295122385025,0.8952698111534119
1788862187544799700,9.4677998046875,-0.2689582407474518,0.2736866772174835,0.967738151550293
1788862187554841900,9.477841796875,-0.2668306231498718,0.2229878008365631,1.048590064048767
1788862187564883700,9.4878837890625,-0.26354295015335083,0.23200100660324097,1.1492618322372437
1788862187574924800,9.4979248046875,-0.2561739981174469,0.21932116150856018,1.229769229888916
1788862187584967000,9.507966796875,-0.24531148374080658,0.1611737161874771,1.282888412475586
1788862187595008800,9.5180087890625,-0.23868687450885773,0.12031549215316772,1.3301743268966675
1788862187605051000,9.52805078125,-0.2301434576511383,0.10534825921058655,1.378240704536438
1788862187615091700,9.538091796875,-0.2416597604751587,0.14998790621757507,1.4474579095840454
1788862187625133800,9.5481337890625,-0.24696744978427887,0.20513051748275757,1.5156172513961792
1788862187635175700,9.55817578125,-0.23076823353767395,0.22358594834804535,1.5265175104141235
1788862187645216800,9.568216796875,-0.19910378754138947,0.1923755705356598,1.5038561820983887
1788862187655259000,9.5782587890625,-0.17980119585990906,0.1692071408033371,1.4720827341079712
1788862187665300700,9.58830078125,-0.1933356374502182,0.17127108573913574,1.4632892608642578
1788862187675342800,9.5983427734375,-0.21157030761241913,0.17112061381340027,1.4708491563796997
1788862187685383700,9.6083837890625,-0.24066507816314697,0.1339668482542038,1.4804948568344116
1788862187695425800,9.61842578125,-0.25359925627708435,0.09455553442239761,1.4754348993301392
1788862187705467600,9.628467529296875,-0.22984571754932404,0.05654237046837807,1.4789241552352905
1788862187715508700,9.6385087890625,-0.1941993087530136,0.047692153602838516,1.4709895849227905
1788862187725550800,9.64855078125,-0.17899052798748016,0.06310519576072693,1.4601364135742188
1788862187735593000,9.658593017578125,-0.1887589991092682,0.0999779924750328,1.498435616493225
1788862187745634800,9.668634765625,-0.217148557305336,0.13226163387298584,1.5789008140563965
1788862187755676000,9.678676025390626,-0.24660179018974304,0.12428493052721024,1.6237798929214478
1788862187765717800,9.6887177734375,-0.28238534927368164,0.08945424854755402,1.6314932107925415
1788862187775759600,9.698759521484375,-0.31118398904800415,0.06523226946592331,1.6211156845092773
1788862187785800700,9.70880078125,-0.334058940410614,0.07143423706293106,1.62735116481781
1788862187795842800,9.7188427734375,-0.3604697585105896,0.09666555374860764,1.6480165719985962
1788862187805885000,9.728885009765625,-0.3794647753238678,0.0626165121793747,1.6887394189834595
1788862187815926800,9.7389267578125,-0.3919169008731842,0.04027445241808891,1.7395541667938232
1788862187825967900,9.7489677734375,-0.378482848405838,0.01853054016828537,1.7850884199142456
1788862187836009700,9.759009765625,-0.35497140884399414,-0.04306677728891373,1.7715622186660767
1788862187846051600,9.769051513671876,-0.3273821175098419,-0.13525156676769257,1.7136874198913574
1788862187856092700,9.7790927734375,-0.29940614104270935,-0.17811167240142822,1.6596428155899048
1788862187866134800,9.789134765625,-0.27856796979904175,-0.18288272619247437,1.639305591583252
1788862187876177000,9.799177001953124,-0.25991013646125793,-0.1482429951429367,1.639075517654419
1788862187886218800,9.80921875,-0.2543705105781555,-0.13518738746643066,1.6463261842727661
1788862187896259800,9.819259765625,-0.25453588366508484,-0.12090564519166946,1.649244785308838
1788862187906301700,9.8293017578125,-0.2542796730995178,-0.07292107492685318,1.6639909744262695
1788862187916343800,9.83934375,-0.24175749719142914,-0.005405950825661421,1.6858656406402588
1788862187926384600,9.849384521484374,-0.2148001790046692,0.02213353104889393,1.6505036354064941
1788862187936426800,9.8594267578125,-0.18285369873046875,-0.023187611252069473,1.5384703874588013
1788862187946468900,9.86946875,-0.14140000939369202,-0.012350675649940968,1.4168789386749268
1788862187956510700,9.8795107421875,-0.08734183013439178,0.06531402468681335,1.363132357597351
1788862187966551800,9.8895517578125,-0.01871190220117569,0.06914072483778,1.3530842065811157
1788862187976593700,9.89959375,0.04868604615330696,0.008650479838252068,1.3340047597885132
1788862187986635800,9.9096357421875,0.1012728214263916,-0.04608280584216118,1.3108896017074585
1788862187996676600,9.919676513671876,0.12876516580581665,-0.04139218106865883,1.2836800813674927
1788862188006719000,9.929718994140625,0.15032319724559784,0.023809459060430527,1.2615673542022705
1788862188016760800,9.9397607421875,0.17127588391304016,0.07455013692378998,1.2261643409729004
1788862188026802000,9.949802001953126,0.18214955925941467,0.06517261266708374,1.168357014656067
1788862188036843800,9.95984375,0.17940092086791992,0.026798058301210403,1.08049738407135
1788862188046885600,9.9698857421875,0.16696634888648987,-0.0435168519616127,0.9760799407958984
1788862188056927700,9.979927734375,0.18424281477928162,-0.15681065618991852,0.8717367649078369
1788862188066968600,9.989968505859375,0.2180633544921875,-0.25046950578689575,0.7769700288772583
1788862188077011000,10.000010986328125,0.2424645721912384,-0.2236597239971161,0.6972238421440125
1788862188087052800,10.010052734375,0.2587737739086151,-0.07922691106796265,0.6493420600891113
1788862188097094000,10.020093994140625,0.26340341567993164,0.09795665740966797,0.639285683631897
1788862188107135700,10.0301357421875,0.27083709836006165,0.2607642114162445,0.6394731998443604
1788862188117177600,10.040177490234376,0.27285444736480713,0.34612011909484863,0.6105022430419922
1788862188127219700,10.0502197265625,0.2592776417732239,0.34549668431282043,0.5402166247367859
1788862188137260800,10.0602607421875,0.2261553704738617,0.3010008633136749,0.432992160320282
1788862188147303000,10.070302978515626,0.1995256245136261,0.22765898704528809,0.3031606674194336
1788862188157344800,10.0803447265625,0.17904378473758698,0.13325339555740356,0.161874920129776
1788862188167385900,10.0903857421875,0.16115640103816986,0.07023607939481735,0.039933834224939346
1788862188177427700,10.100427734375,0.15160471200942993,0.05745556950569153,-0.07108882069587708
1788862188187469800,10.1104697265625,0.12674835324287415,0.05078275501728058,-0.15983839333057404
1788862188197512200,10.12051220703125,0.0999487042427063,0.06222795322537422,-0.21375516057014465
1788862188207553000,10.130552978515626,0.09613318741321564,0.08445043861865997,-0.23775210976600647
1788862188217595100,10.14059521484375,0.1258026659488678,0.12703171372413635,-0.24494796991348267
1788862188227637200,10.15063720703125,0.16145068407058716,0.1840883493423462,-0.24589206278324127
1788862188237678300,10.16067822265625,0.17176376283168793,0.25311747193336487,-0.24950143694877625
1788862188247720200,10.17072021484375,0.16516871750354767,0.30275481939315796,-0.28312918543815613
1788862188257762300,10.18076220703125,0.15260791778564453,0.26882481575012207,-0.34549054503440857
1788862188267804200,10.19080419921875,0.1385112702846527,0.17290733754634857,-0.42526236176490784
1788862188277845200,10.20084521484375,0.13425500690937042,0.10084672272205353,-0.5137325525283813
1788862188287887000,10.21088720703125,0.14238058030605316,0.056233178824186325,-0.6047418117523193
1788862188297929200,10.22092919921875,0.14087669551372528,0.029283586889505386,-0.676121175289154
1788862188307970300,10.23097021484375,0.11573538929224014,0.021698104217648506,-0.6959585547447205
1788862188318012200,10.24101220703125,0.09414567053318024,-0.0299680195748806,-0.6715258955955505
1788862188328054300,10.25105419921875,0.09503676742315292,-0.14505839347839355,-0.6254593729972839
1788862188338096000,10.26109619140625,0.11420779675245285,-0.24580177664756775,-0.558445155620575
1788862188348137200,10.27113720703125,0.13530509173870087,-0.1527373492717743,-0.48585617542266846
1788862188358179000,10.281178955078126,0.123405821621418,0.14348739385604858,-0.4313623309135437
1788862188368221200,10.29122119140625,0.0670219138264656,0.4929191470146179,-0.4282136559486389
1788862188378262300,10.30126220703125,0.01727486029267311,0.7758568525314331,-0.4990585446357727
1788862188388304100,10.31130419921875,0.0018969696247950196,0.8685979843139648,-0.6051737666130066
1788862188398346200,10.32134619140625,0.017715614289045334,0.6973050236701965,-0.7072058916091919
1788862188408388000,10.33138818359375,0.06269347667694092,0.3410952687263489,-0.8071966767311096
1788862188418429200,10.34142919921875,0.11697428673505783,-0.05854080617427826,-0.9247232675552368
1788862188428471000,10.351470947265625,0.16779139637947083,-0.39747172594070435,-1.0397156476974487
1788862188438513200,10.36151318359375,0.21808093786239624,-0.5853580236434937,-1.0604017972946167
1788862188448554200,10.37155419921875,0.23862029612064362,-0.5559111833572388,-1.008084774017334
1788862188458596400,10.381596435546875,0.22057019174098969,-0.3378440737724304,-0.9248199462890625
1788862188468638200,10.39163818359375,0.17777292430400848,-0.013284912332892418,-0.8414928317070007
1788862188478679300,10.40167919921875,0.1190536841750145,0.24515515565872192,-0.792156457901001
1788862188488721200,10.41172119140625,0.06293582171201706,0.33205997943878174,-0.7995100021362305
1788862188498763000,10.421762939453124,0.023444605991244316,0.18523670732975006,-0.8658559918403625
1788862188508805400,10.431805419921876,0.006299707572907209,-0.08610185980796814,-0.9421137571334839
1788862188518846200,10.44184619140625,0.010378604754805565,-0.3326956629753113,-1.0032044649124146
1788862188528888300,10.451888427734374,0.024205470457673073,-0.42562612891197205,-1.0314455032348633
1788862188538930200,10.46193017578125,0.050278350710868835,-0.3619576692581177,-1.0211702585220337
1788862188548971300,10.47197119140625,0.031318772584199905,-0.2034340798854828,-1.0002777576446533
1788862188559013000,10.48201318359375,0.0012804478174075484,-0.030979754403233528,-0.981715738773346
1788862188569055200,10.49205517578125,-0.013953366316854954,0.12171551585197449,-0.968349039554596
1788862188579097300,10.502097412109375,-0.021505026146769524,0.2057449072599411,-0.9373463988304138
1788862188589138200,10.51213818359375,-0.028244420886039734,0.20223087072372437,-0.928213894367218
1788862188599180300,10.52218017578125,-0.029154956340789795,0.1356275975704193,-0.9865877032279968
1788862188609222100,10.53222216796875,-0.022526081651449203,0.040640637278556824,-1.0847175121307373
1788862188619263200,10.54226318359375,0.0013427657540887594,-0.03564801067113876,-1.150958776473999
1788862188629305000,10.55230517578125,-0.0029827402904629707,-0.05546192824840546,-1.21043062210083
1788862188639347200,10.56234716796875,-0.008053398691117764,-0.06526768952608109,-1.317334532737732
1788862188649389300,10.572389404296874,0.009550894610583782,-0.2137242704629898,-1.3899517059326172
1788862188659430100,10.58243017578125,0.02696530520915985,-0.44241684675216675,-1.3913477659225464
1788862188669472300,10.59247216796875,0.01924959383904934,-0.5178314447402954,-1.3325462341308594
1788862188679514000,10.60251416015625,-0.004250404890626669,-0.3824906349182129,-1.3016234636306763
1788862188689555200,10.61255517578125,-0.013226855546236038,-0.27248796820640564,-1.28676438331604
1788862188699597000,10.62259716796875,-0.0044171190820634365,-0.3361489772796631,-1.329663872718811
1788862188709639400,10.632639404296874,0.014917963184416294,-0.4912014305591583,-1.446675181388855
1788862188719680300,10.64268017578125,0.03826776146888733,-0.6000418663024902,-1.5208114385604858
1788862188729722400,10.652722412109375,0.032583244144916534,-0.5914624929428101,-1.5212911367416382
1788862188739764200,10.66276416015625,0.0014772554859519005,-0.5206676721572876,-1.4529680013656616
1788862188749806000,10.67280615234375,-0.026871562004089355,-0.4361293911933899,-1.3656290769577026
1788862188759847200,10.68284716796875,-0.036552418023347855,-0.37069258093833923,-1.3307256698608398
1788862188769889000,10.692888916015624,-0.025836924090981483,-0.35400575399398804,-1.372497320175171
1788862188779931400,10.702931396484376,-0.02105947956442833,-0.3646346926689148,-1.4505524635314941
1788862188789972200,10.71297216796875,-0.016321448609232903,-0.39739397168159485,-1.4902114868164062
1788862188800014300,10.723014404296874,-0.01076742634177208,-0.4242977499961853,-1.4895949363708496
1788862188810056200,10.73305615234375,-0.00023089606838766485,-0.45425084233283997,-1.4767587184906006
1788862188820098000,10.74309814453125,0.004442951641976833,-0.46417006850242615,-1.4844744205474854
1788862188830139100,10.75313916015625,0.04062146320939064,-0.4751042127609253,-1.5325086116790771
1788862188840181000,10.763180908203125,0.0395846925675869,-0.5329645872116089,-1.5534617900848389
1788862188850223400,10.773223388671875,-0.010962103493511677,-0.5247181057929993,-1.5389920473098755
1788862188860264200,10.78326416015625,-0.08440010249614716,-0.4360966086387634,-1.483715534210205
1788862188870306300,10.793306396484375,-0.13210716843605042,-0.3254137933254242,-1.4552949666976929
1788862188880348200,10.80334814453125,-0.1343090683221817,-0.28674015402793884,-1.4345532655715942
1788862188890389200,10.81338916015625,-0.09344419836997986,-0.29333600401878357,-1.3921812772750854
1788862188900431000,10.82343115234375,-0.04923012852668762,-0.24274766445159912,-1.383404016494751
1788862188910473200,10.83347314453125,-0.024502413347363472,-0.10091836005449295,-1.400281548500061
1788862188920515300,10.843515380859374,-0.016772588714957237,0.06371293216943741,-1.331230640411377
1788862188930556400,10.853556396484375,-0.016992298886179924,0.2017669379711151,-1.291948676109314
1788862188940598300,10.863598388671875,-0.014167217537760735,0.2956646680831909,-1.3412584066390991
1788862188950640000,10.87364013671875,-0.036547623574733734,0.31465116143226624,-1.3337877988815308
1788862188960681200,10.88368115234375,-0.05258731171488762,0.2637874484062195,-1.3127962350845337
1788862188970723000,10.89372314453125,-0.06300772726535797,0.21604149043560028,-1.220663070678711
1788862188980765200,10.90376513671875,-0.05499720573425293,0.26761627197265625,-1.2026145458221436
1788862188990807300,10.913807373046875,-0.048524923622608185,0.20939476788043976,-1.0955344438552856
1788862189000848400,10.923848388671875,-0.013373329304158688,0.14776496589183807,-0.9792658686637878
1788862189010890200,10.93389013671875,-0.024159664288163185,0.12459252774715424,-0.8971760869026184
1788862189020932000,10.94393212890625,-0.0783909484744072,0.0546797551214695,-0.8059545755386353
1788862189030973200,10.95397314453125,-0.09457896649837494,-0.005221926141530275,-0.6255150437355042
1788862189041015000,10.96401513671875,-0.06426500529050827,0.09511320292949677,-0.4418964385986328
1788862189051057200,10.97405712890625,-0.03592044860124588,0.26131123304367065,-0.28038692474365234
1788862189061099300,10.984099365234375,-0.04006725922226906,0.29117539525032043,-0.11190709471702576
1788862189071140400,10.994140380859376,-0.03846083953976631,0.3553658127784729,-0.01569800265133381
1788862189081182200,11.00418212890625,-0.03760915994644165,0.3980538845062256,0.07654564082622528
1788862189091224300,11.014224365234375,-0.0557657927274704,0.37552034854888916,0.14626213908195496
1788862189101265200,11.02426513671875,-0.07219243794679642,0.38257506489753723,0.2512708306312561
1788862189111307300,11.034307373046875,-0.10154873132705688,0.42617687582969666,0.38332289457321167
1788862189121349000,11.04434912109375,-0.13736318051815033,0.4262887239456177,0.5028998851776123
1788862189131390200,11.05439013671875,-0.16696901619434357,0.4118139147758484,0.6057237386703491
1788862189141432300,11.064432373046875,-0.17612895369529724,0.4099414348602295,0.755617082118988
1788862189151474200,11.07447412109375,-0.17087560892105103,0.4673216640949249,0.9065355062484741
1788862189161516300,11.084516357421874,-0.14553989470005035,0.4899342954158783,0.987084150314331
1788862189171557000,11.09455712890625,-0.11744619905948639,0.44592979550361633,1.039480209350586
1788862189181599200,11.10459912109375,-0.10834937542676926,0.42185351252555847,1.0959259271621704
1788862189191641900,11.114641845703124,-0.09490147978067398,0.4366540312767029,1.1680803298950195
1788862189201682700,11.1246826171875,-0.08018271625041962,0.4241209030151367,1.2385590076446533
1788862189211725000,11.13472509765625,-0.07271947711706161,0.38803374767303467,1.3005712032318115
1788862189221767000,11.144766845703124,-0.056536246091127396,0.36776497960090637,1.3665494918823242
1788862189231809000,11.15480908203125,-0.05146452412009239,0.36536866426467896,1.4251173734664917
1788862189241849900,11.164849853515625,-0.0679958313703537,0.3292250335216522,1.4559211730957031
1788862189251892000,11.17489208984375,-0.08364509791135788,0.2724485695362091,1.4617409706115723
1788862189261933800,11.184933837890625,-0.1068795770406723,0.24441853165626526,1.4376270771026611
1788862189271975000,11.194974853515625,-0.1306629329919815,0.23563995957374573,1.4222006797790527
1788862189282017000,11.20501708984375,-0.1422487497329712,0.21991372108459473,1.4630043506622314
1788862189292059000,11.215058837890625,-0.15427346527576447,0.22722142934799194,1.5468899011611938
1788862189302101000,11.22510107421875,-0.14581046998500824,0.20288680493831635,1.6097849607467651
1788862189312141800,11.235141845703126,-0.12777207791805267,0.1297348290681839,1.6283938884735107
1788862189322184000,11.245183837890625,-0.10211731493473053,0.11686589568853378,1.661700963973999
1788862189332225800,11.255225830078125,-0.065965436398983,0.1336912214756012,1.6947752237319946
1788862189342267000,11.265266845703126,-0.026518426835536957,0.13671523332595825,1.7161625623703003
1788862189352309000,11.27530908203125,-0.006367884576320648,0.15848471224308014,1.7640224695205688
1788862189362350800,11.285350830078125,-0.007545800413936377,0.19972988963127136,1.8404392004013062
1788862189372392000,11.295391845703126,-0.030104639008641243,0.25412920117378235,1.8973087072372437
1788862189382433800,11.305433837890625,-0.06552495062351227,0.29347288608551025,1.9037928581237793
1788862189392476000,11.315475830078125,-0.114990234375,0.2677667438983917,1.882126808166504
1788862189402517800,11.325517822265626,-0.16331329941749573,0.20316483080387115,1.8680332899093628
1788862189412558800,11.335558837890625,-0.21530644595623016,0.18548516929149628,1.853288173675537
1788862189422601000,11.34560107421875,-0.27551040053367615,0.18026751279830933,1.8489352464675903
1788862189432642800,11.355642822265626,-0.3334469497203827,0.13616769015789032,1.863760232925415
1788862189442684000,11.365683837890625,-0.3732726573944092,0.09639817476272583,1.9003456830978394
1788862189452725800,11.375725830078125,-0.399923175573349,0.054068826138973236,1.9232382774353027
1788862189462767900,11.385767822265626,-0.40933823585510254,-0.009729593060910702,1.9073466062545776
1788862189472809000,11.39580908203125,-0.38942205905914307,-0.07335144281387329,1.87532377243042
1788862189482851000,11.40585107421875,-0.32891902327537537,-0.12463806569576263,1.843657374382019
1788862189492893000,11.415892822265626,-0.23482103645801544,-0.15117327868938446,1.821669578552246
1788862189502935000,11.42593505859375,-0.14259256422519684,-0.15541622042655945,1.7838354110717773
1788862189512976000,11.435975830078124,-0.07793235033750534,-0.08515750616788864,1.7654811143875122
1788862189523018000,11.44601806640625,-0.044565338641405106,0.058639343827962875,1.766384243965149
1788862189533059800,11.456059814453125,-0.02744920179247856,0.16530559957027435,1.7568104267120361
1788862189543101000,11.466100830078124,-0.006567355245351791,0.16140779852867126,1.7202869653701782
1788862189553143000,11.47614306640625,0.024214791133999825,0.05902044475078583,1.6532453298568726
1788862189563185000,11.486184814453125,0.034274615347385406,-0.06913646310567856,1.5569508075714111
1788862189573227000,11.49622705078125,0.03305515646934509,-0.18256394565105438,1.4571523666381836
1788862189583267800,11.506267822265626,0.006674148142337799,-0.1800222247838974,1.371901035308838
1788862189593310000,11.51631005859375,-0.03702406585216522,-0.09601041674613953,1.308822751045227
1788862189603351800,11.526351806640625,-0.057684335857629776,-0.04453018307685852,1.2587214708328247
1788862189613393000,11.536392822265626,-0.04237408936023712,-0.07613391429185867,1.221764326095581
1788862189623435000,11.54643505859375,-0.0229354090988636,-0.0907679870724678,1.187923789024353
1788862189633476900,11.556476806640624,-0.03317313268780708,-0.04243747144937515,1.1598490476608276
1788862189643518000,11.56651806640625,-0.06608181446790695,0.034808315336704254,1.1375311613082886
1788862189653559800,11.576559814453125,-0.1026102676987648,0.03165486454963684,1.0935487747192383
1788862189663602000,11.586601806640624,-0.10360122472047806,-0.07154501974582672,1.0379787683486938
1788862189673643800,11.596643798828126,-0.07929455488920212,-0.15507400035858154,0.9538923501968384
1788862189683684900,11.606684814453125,-0.04741598665714264,-0.15632222592830658,0.8435328602790833
1788862189693727000,11.61672705078125,-0.0028181569650769234,-0.12018073350191116,0.7129763960838318
1788862189703769000,11.62676904296875,0.0458977185189724,-0.06883179396390915,0.569342315196991
1788862189713810000,11.636809814453125,0.07681355625391006,0.02930675633251667,0.42684587836265564
1788862189723852000,11.64685205078125,0.08623954653739929,0.1594383865594864,0.2980135679244995
1788862189733894000,11.656893798828126,0.07905060797929764,0.29321348667144775,0.20911380648612976
1788862189743935000,11.66693505859375,0.08917861431837082,0.40804022550582886,0.13644199073314667
1788862189753976800,11.676976806640624,0.09507139027118683,0.4934946596622467,0.05148715898394585
1788862189764019000,11.68701904296875,0.11088018119335175,0.4961423873901367,-0.02707982063293457
1788862189774061000,11.69706103515625,0.13230770826339722,0.42922887206077576,-0.09354779124259949
1788862189784102000,11.707101806640624,0.15082359313964844,0.36976900696754456,-0.14100664854049683
1788862189794144000,11.71714404296875,0.16929981112480164,0.3192954361438751,-0.17767944931983948
1788862189804185900,11.727185791015625,0.20008568465709686,0.24266085028648376,-0.20746424794197083
1788862189814227000,11.73722705078125,0.23194295167922974,0.16972218453884125,-0.2297373265028
1788862189824268800,11.747268798828125,0.26225265860557556,0.12014211714267731,-0.24957121908664703
1788862189834311000,11.757310791015625,0.2866613268852234,0.11701051145792007,-0.28146177530288696
1788862189844353000,11.76735302734375,0.2925759255886078,0.14220134913921356,-0.3117104768753052
1788862189854393900,11.777393798828125,0.3152085542678833,0.22062665224075317,-0.34999769926071167
1788862189864436000,11.78743603515625,0.34711694717407227,0.3776005506515503,-0.38319531083106995
1788862189874477800,11.797477783203124,0.3445930778980255,0.6194624304771423,-0.40792542695999146
1788862189884519000,11.807518798828125,0.3268337845802307,0.885845959186554,-0.4842953085899353
1788862189894560800,11.817560791015625,0.32264623045921326,1.022809624671936,-0.6143302917480469
1788862189904603000,11.827602783203124,0.3758535087108612,0.9920338988304138,-0.7439303398132324
1788862189914644000,11.83764404296875,0.46102994680404663,0.787735641002655,-0.834814190864563
1788862189924686000,11.84768603515625,0.5376242995262146,0.4031860828399658,-0.9036654233932495
1788862189934728000,11.85772802734375,0.5699582695960999,-0.04795580729842186,-0.8885660767555237
1788862189944769800,11.867769775390625,0.5141213536262512,-0.35743802785873413,-0.7500766515731812
1788862189954811000,11.877810791015625,0.36395424604415894,-0.34903573989868164,-0.645045816898346
1788862189964852700,11.887852783203124,0.20848503708839417,-0.09526899456977844,-0.636437714099884
1788862189974895000,11.89789501953125,0.10088320076465607,0.1552809327840805,-0.6876332759857178
1788862189984936000,11.90793603515625,0.03177151083946228,0.30845797061920166,-0.776394248008728
1788862189994978000,11.91797802734375,-0.015095596201717854,0.3544113337993622,-0.8563197255134583
1788862190005020000,11.92802001953125,-0.04404602199792862,0.2804329991340637,-0.9049866199493408
1788862190015061000,11.93806103515625,-0.07200334966182709,0.18073436617851257,-0.9269270300865173
1788862190025102800,11.948102783203124,-0.09591454267501831,0.11686350405216217,-0.959143877029419
1788862190035144700,11.958144775390625,-0.09249983727931976,0.08493220061063766,-1.003670573234558
1788862190045187000,11.96818701171875,-0.07225475460290909,0.09284178912639618,-1.0221896171569824
1788862190055228000,11.978227783203126,-0.05507523566484451,0.12044252455234528,-1.0264190435409546
1788862190065270000,11.98827001953125,-0.047021038830280304,0.1590237319469452,-1.0369712114334106
1788862190075311900,11.998311767578125,-0.029111811891198158,0.2116544544696808,-1.0467133522033691
1788862190085353000,12.00835302734375,0.001838912721723318,0.22742196917533875,-1.0427663326263428
1788862190095394800,12.018394775390625,-0.025920813903212547,0.22726990282535553,-1.0452874898910522
1788862190105437000,12.02843701171875,-0.05625341832637787,0.1724066585302353,-1.1188890933990479
1788862190115477800,12.038477783203126,-0.05110552906990051,0.19371354579925537,-1.3455219268798828
1788862190125520000,12.048519775390625,-0.005794506054371595,0.28364238142967224,-1.5694631338119507
1788862190135562000,12.05856201171875,0.026639066636562347,0.187503844499588,-1.5473554134368896
1788862190145603800,12.068603759765624,0.012724850326776505,-0.006853911560028791,-1.4749161005020142
1788862190155645000,12.07864501953125,-0.009380718693137169,-0.13734453916549683,-1.4669336080551147
1788862190165686800,12.088686767578125,-0.015527826733887196,-0.07799466699361801,-1.4930423498153687
1788862190175729000,12.09872900390625,-0.03295741602778435,0.037225399166345596,-1.4640109539031982
1788862190185769700,12.108769775390625,-0.04830335080623627,0.018455440178513527,-1.393469214439392
1788862190195811300,12.118811279296875,-0.043426837772130966,-0.12339543551206589,-1.372991681098938
1788862190205853200,12.128853271484376,-0.02881859801709652,-0.2934281527996063,-1.3930697441101074
1788862190215894300,12.138894287109375,0.010132795199751854,-0.38454341888427734,-1.4101946353912354
1788862190225936100,12.14893603515625,0.05156625434756279,-0.3845633864402771,-1.3859119415283203
1788862190235978200,12.158978271484376,0.09874122589826584,-0.33503392338752747,-1.3486841917037964
1788862190246020400,12.169020263671875,0.13028982281684875,-0.28491243720054626,-1.3665601015090942
1788862190256061400,12.1790615234375,0.1296117901802063,-0.2972026467323303,-1.4132634401321411
1788862190266103300,12.189103271484376,0.12324736267328262,-0.3527849614620209,-1.4584881067276
1788862190276145200,12.199145263671875,0.14013659954071045,-0.42497047781944275,-1.4848097562789917
1788862190286186200,12.209186279296874,0.17291292548179626,-0.5066983699798584,-1.4938408136367798
1788862190296228000,12.21922802734375,0.21294662356376648,-0.5925975441932678,-1.5150078535079956
1788862190306270500,12.2292705078125,0.2593578100204468,-0.6444016098976135,-1.5682657957077026
1788862190316311300,12.239311279296874,0.2816479206085205,-0.6971386075019836,-1.6069250106811523
1788862190326353400,12.249353515625,0.26777100563049316,-0.7583492398262024,-1.6179747581481934
1788862190336395300,12.259395263671875,0.25653591752052307,-0.7384445071220398,-1.6169954538345337
1788862190346437000,12.26943701171875,0.24857120215892792,-0.7041371464729309,-1.5864101648330688
1788862190356478200,12.279478271484376,0.2489592283964157,-0.6577022671699524,-1.5481376647949219
1788862190366520000,12.28952001953125,0.26416879892349243,-0.6033042669296265,-1.5669283866882324
1788862190376562400,12.2995625,0.27825477719306946,-0.60243821144104,-1.6343857049942017
1788862190386603300,12.309603271484375,0.3173827528953552,-0.6459364295005798,-1.6829686164855957
1788862190396645400,12.319645263671875,0.35587209463119507,-0.6269823908805847,-1.6663169860839844
1788862190406687200,12.329687255859374,0.379525750875473,-0.5097649693489075,-1.639762043952942
1788862190416728300,12.339728271484375,0.37093600630760193,-0.4455583095550537,-1.6281129121780396
1788862190426770200,12.349770263671875,0.33064183592796326,-0.4779900014400482,-1.6022738218307495
1788862190436812300,12.359812255859374,0.2565614879131317,-0.47652608156204224,-1.5283095836639404
1788862190446854400,12.3698544921875,0.17637449502944946,-0.45195814967155457,-1.480222463607788
1788862190456895200,12.379895263671875,0.14109933376312256,-0.4790933430194855,-1.4888290166854858
1788862190466937300,12.389937255859374,0.14753831923007965,-0.5081718564033508,-1.4234638214111328
1788862190476979200,12.399979248046876,0.16168422996997833,-0.43739649653434753,-1.3562184572219849
1788862190487020300,12.410020263671875,0.17343837022781372,-0.33868005871772766,-1.2927721738815308
1788862190497062100,12.420062255859374,0.1773580014705658,-0.18231414258480072,-1.2617441415786743
1788862190507104500,12.4301044921875,0.1657695323228836,-0.10519512742757797,-1.218706727027893
1788862190517145300,12.440145263671875,0.15178872644901276,-0.07767455279827118,-1.1384263038635254
1788862190527187500,12.4501875,0.12721441686153412,-0.022227806970477104,-1.0565340518951416
1788862190537229300,12.460229248046875,0.12399278581142426,0.034443195909261703,-0.9079869389533997
1788862190547271200,12.470271240234375,0.15897341072559357,0.02834668569266796,-0.7858788371086121
1788862190557312300,12.480312255859374,0.13279587030410767,0.014928082935512066,-0.653107225894928
1788862190567354000,12.49035400390625,0.09477125108242035,0.043541353195905685,-0.512403130531311
1788862190577396500,12.500396484375,0.06347697973251343,0.06169745326042175,-0.40065446496009827
1788862190587437300,12.510437255859374,0.025595108047127724,0.058523498475551605,-0.31495288014411926
1788862190597479400,12.5204794921875,-0.017671404406428337,0.10518208146095276,-0.24004988372325897
